File: LHC_elements/from_Benoit_BPMs/BPMstripline_80mm.dat
 Dstrippipe Lconnect Lpipe Lstrip M Rbeam Rbpm Rconn Riso1 Rpipe Rstrip Strip WStrip Xcurved Xstraight alfa angle beam_charge beam_sigma modes tap transStrip xbeam ybeam Freq[GHz] Imp_Real[Ohm] Imp_Imag[Ohm]
 2.9 6.38 200 120 1 1.1 4 0.55 3.5 44.4 39.02 4.38 1 3.09 6.2 11.6 15 1.7e-008 50 1 21.0215 12.25 0 10 0 0 -2.84251
 2.9 6.38 200 120 1 1.1 4 0.55 3.5 44.4 39.02 4.38 1 3.09 6.2 11.6 15 1.7e-008 50 1 21.0215 12.25 0 10 0.0163826 -0.0863618 -2.86751
 2.9 6.38 200 120 1 1.1 4 0.55 3.5 44.4 39.02 4.38 1 3.09 6.2 11.6 15 1.7e-008 50 1 21.0215 12.25 0 10 0.0327653 -0.160215 -2.86253
 2.9 6.38 200 120 1 1.1 4 0.55 3.5 44.4 39.02 4.38 1 3.09 6.2 11.6 15 1.7e-008 50 1 21.0215 12.25 0 10 0.0491479 -0.237161 -2.85389
 2.9 6.38 200 120 1 1.1 4 0.55 3.5 44.4 39.02 4.38 1 3.09 6.2 11.6 15 1.7e-008 50 1 21.0215 12.25 0 10 0.0655305 -0.314963 -2.8412
 2.9 6.38 200 120 1 1.1 4 0.55 3.5 44.4 39.02 4.38 1 3.09 6.2 11.6 15 1.7e-008 50 1 21.0215 12.25 0 10 0.0819132 -0.392846 -2.82408
 2.9 6.38 200 120 1 1.1 4 0.55 3.5 44.4 39.02 4.38 1 3.09 6.2 11.6 15 1.7e-008 50 1 21.0215 12.25 0 10 0.0982958 -0.470124 -2.80229
 2.9 6.38 200 120 1 1.1 4 0.55 3.5 44.4 39.02 4.38 1 3.09 6.2 11.6 15 1.7e-008 50 1 21.0215 12.25 0 10 0.114678 -0.54609 -2.77578
 2.9 6.38 200 120 1 1.1 4 0.55 3.5 44.4 39.02 4.38 1 3.09 6.2 11.6 15 1.7e-008 50 1 21.0215 12.25 0 10 0.131061 -0.620084 -2.74475
 2.9 6.38 200 120 1 1.1 4 0.55 3.5 44.4 39.02 4.38 1 3.09 6.2 11.6 15 1.7e-008 50 1 21.0215 12.25 0 10 0.147444 -0.691581 -2.70961
 2.9 6.38 200 120 1 1.1 4 0.55 3.5 44.4 39.02 4.38 1 3.09 6.2 11.6 15 1.7e-008 50 1 21.0215 12.25 0 10 0.163826 -0.760258 -2.67086
 2.9 6.38 200 120 1 1.1 4 0.55 3.5 44.4 39.02 4.38 1 3.09 6.2 11.6 15 1.7e-008 50 1 21.0215 12.25 0 10 0.180209 -0.82601 -2.62899
 2.9 6.38 200 120 1 1.1 4 0.55 3.5 44.4 39.02 4.38 1 3.09 6.2 11.6 15 1.7e-008 50 1 21.0215 12.25 0 10 0.196592 -0.888902 -2.58438
 2.9 6.38 200 120 1 1.1 4 0.55 3.5 44.4 39.02 4.38 1 3.09 6.2 11.6 15 1.7e-008 50 1 21.0215 12.25 0 10 0.212974 -0.949082 -2.53726
 2.9 6.38 200 120 1 1.1 4 0.55 3.5 44.4 39.02 4.38 1 3.09 6.2 11.6 15 1.7e-008 50 1 21.0215 12.25 0 10 0.229357 -1.00667 -2.48767
 2.9 6.38 200 120 1 1.1 4 0.55 3.5 44.4 39.02 4.38 1 3.09 6.2 11.6 15 1.7e-008 50 1 21.0215 12.25 0 10 0.245739 -1.06168 -2.43554
 2.9 6.38 200 120 1 1.1 4 0.55 3.5 44.4 39.02 4.38 1 3.09 6.2 11.6 15 1.7e-008 50 1 21.0215 12.25 0 10 0.262122 -1.11395 -2.38076
 2.9 6.38 200 120 1 1.1 4 0.55 3.5 44.4 39.02 4.38 1 3.09 6.2 11.6 15 1.7e-008 50 1 21.0215 12.25 0 10 0.278505 -1.16317 -2.32327
 2.9 6.38 200 120 1 1.1 4 0.55 3.5 44.4 39.02 4.38 1 3.09 6.2 11.6 15 1.7e-008 50 1 21.0215 12.25 0 10 0.294887 -1.20895 -2.26318
 2.9 6.38 200 120 1 1.1 4 0.55 3.5 44.4 39.02 4.38 1 3.09 6.2 11.6 15 1.7e-008 50 1 21.0215 12.25 0 10 0.31127 -1.25087 -2.20078
 2.9 6.38 200 120 1 1.1 4 0.55 3.5 44.4 39.02 4.38 1 3.09 6.2 11.6 15 1.7e-008 50 1 21.0215 12.25 0 10 0.327653 -1.28863 -2.13651
 2.9 6.38 200 120 1 1.1 4 0.55 3.5 44.4 39.02 4.38 1 3.09 6.2 11.6 15 1.7e-008 50 1 21.0215 12.25 0 10 0.344035 -1.32208 -2.07089
 2.9 6.38 200 120 1 1.1 4 0.55 3.5 44.4 39.02 4.38 1 3.09 6.2 11.6 15 1.7e-008 50 1 21.0215 12.25 0 10 0.360418 -1.35129 -2.00445
 2.9 6.38 200 120 1 1.1 4 0.55 3.5 44.4 39.02 4.38 1 3.09 6.2 11.6 15 1.7e-008 50 1 21.0215 12.25 0 10 0.376801 -1.37645 -1.93761
 2.9 6.38 200 120 1 1.1 4 0.55 3.5 44.4 39.02 4.38 1 3.09 6.2 11.6 15 1.7e-008 50 1 21.0215 12.25 0 10 0.393183 -1.39784 -1.87063
 2.9 6.38 200 120 1 1.1 4 0.55 3.5 44.4 39.02 4.38 1 3.09 6.2 11.6 15 1.7e-008 50 1 21.0215 12.25 0 10 0.409566 -1.41571 -1.80358
 2.9 6.38 200 120 1 1.1 4 0.55 3.5 44.4 39.02 4.38 1 3.09 6.2 11.6 15 1.7e-008 50 1 21.0215 12.25 0 10 0.425948 -1.43022 -1.73643
 2.9 6.38 200 120 1 1.1 4 0.55 3.5 44.4 39.02 4.38 1 3.09 6.2 11.6 15 1.7e-008 50 1 21.0215 12.25 0 10 0.442331 -1.44133 -1.66911
 2.9 6.38 200 120 1 1.1 4 0.55 3.5 44.4 39.02 4.38 1 3.09 6.2 11.6 15 1.7e-008 50 1 21.0215 12.25 0 10 0.458714 -1.44888 -1.60161
 2.9 6.38 200 120 1 1.1 4 0.55 3.5 44.4 39.02 4.38 1 3.09 6.2 11.6 15 1.7e-008 50 1 21.0215 12.25 0 10 0.475096 -1.45262 -1.53406
 2.9 6.38 200 120 1 1.1 4 0.55 3.5 44.4 39.02 4.38 1 3.09 6.2 11.6 15 1.7e-008 50 1 21.0215 12.25 0 10 0.491479 -1.45229 -1.46677
 2.9 6.38 200 120 1 1.1 4 0.55 3.5 44.4 39.02 4.38 1 3.09 6.2 11.6 15 1.7e-008 50 1 21.0215 12.25 0 10 0.507862 -1.44776 -1.40021
 2.9 6.38 200 120 1 1.1 4 0.55 3.5 44.4 39.02 4.38 1 3.09 6.2 11.6 15 1.7e-008 50 1 21.0215 12.25 0 10 0.524244 -1.43906 -1.33492
 2.9 6.38 200 120 1 1.1 4 0.55 3.5 44.4 39.02 4.38 1 3.09 6.2 11.6 15 1.7e-008 50 1 21.0215 12.25 0 10 0.540627 -1.42643 -1.27141
 2.9 6.38 200 120 1 1.1 4 0.55 3.5 44.4 39.02 4.38 1 3.09 6.2 11.6 15 1.7e-008 50 1 21.0215 12.25 0 10 0.557009 -1.41028 -1.21007
 2.9 6.38 200 120 1 1.1 4 0.55 3.5 44.4 39.02 4.38 1 3.09 6.2 11.6 15 1.7e-008 50 1 21.0215 12.25 0 10 0.573392 -1.39108 -1.15109
 2.9 6.38 200 120 1 1.1 4 0.55 3.5 44.4 39.02 4.38 1 3.09 6.2 11.6 15 1.7e-008 50 1 21.0215 12.25 0 10 0.589775 -1.36926 -1.09444
 2.9 6.38 200 120 1 1.1 4 0.55 3.5 44.4 39.02 4.38 1 3.09 6.2 11.6 15 1.7e-008 50 1 21.0215 12.25 0 10 0.606157 -1.34512 -1.03998
 2.9 6.38 200 120 1 1.1 4 0.55 3.5 44.4 39.02 4.38 1 3.09 6.2 11.6 15 1.7e-008 50 1 21.0215 12.25 0 10 0.62254 -1.31875 -0.98749
 2.9 6.38 200 120 1 1.1 4 0.55 3.5 44.4 39.02 4.38 1 3.09 6.2 11.6 15 1.7e-008 50 1 21.0215 12.25 0 10 0.638923 -1.29006 -0.936848
 2.9 6.38 200 120 1 1.1 4 0.55 3.5 44.4 39.02 4.38 1 3.09 6.2 11.6 15 1.7e-008 50 1 21.0215 12.25 0 10 0.655305 -1.25887 -0.888091
 2.9 6.38 200 120 1 1.1 4 0.55 3.5 44.4 39.02 4.38 1 3.09 6.2 11.6 15 1.7e-008 50 1 21.0215 12.25 0 10 0.671688 -1.22497 -0.841465
 2.9 6.38 200 120 1 1.1 4 0.55 3.5 44.4 39.02 4.38 1 3.09 6.2 11.6 15 1.7e-008 50 1 21.0215 12.25 0 10 0.68807 -1.1883 -0.797392
 2.9 6.38 200 120 1 1.1 4 0.55 3.5 44.4 39.02 4.38 1 3.09 6.2 11.6 15 1.7e-008 50 1 21.0215 12.25 0 10 0.704453 -1.14902 -0.756378
 2.9 6.38 200 120 1 1.1 4 0.55 3.5 44.4 39.02 4.38 1 3.09 6.2 11.6 15 1.7e-008 50 1 21.0215 12.25 0 10 0.720836 -1.10751 -0.718882
 2.9 6.38 200 120 1 1.1 4 0.55 3.5 44.4 39.02 4.38 1 3.09 6.2 11.6 15 1.7e-008 50 1 21.0215 12.25 0 10 0.737218 -1.06434 -0.685193
 2.9 6.38 200 120 1 1.1 4 0.55 3.5 44.4 39.02 4.38 1 3.09 6.2 11.6 15 1.7e-008 50 1 21.0215 12.25 0 10 0.753601 -1.02015 -0.65535
 2.9 6.38 200 120 1 1.1 4 0.55 3.5 44.4 39.02 4.38 1 3.09 6.2 11.6 15 1.7e-008 50 1 21.0215 12.25 0 10 0.769984 -0.975523 -0.629136
 2.9 6.38 200 120 1 1.1 4 0.55 3.5 44.4 39.02 4.38 1 3.09 6.2 11.6 15 1.7e-008 50 1 21.0215 12.25 0 10 0.786366 -0.930828 -0.606153
 2.9 6.38 200 120 1 1.1 4 0.55 3.5 44.4 39.02 4.38 1 3.09 6.2 11.6 15 1.7e-008 50 1 21.0215 12.25 0 10 0.802749 -0.886183 -0.585955
 2.9 6.38 200 120 1 1.1 4 0.55 3.5 44.4 39.02 4.38 1 3.09 6.2 11.6 15 1.7e-008 50 1 21.0215 12.25 0 10 0.819132 -0.841454 -0.568196
 2.9 6.38 200 120 1 1.1 4 0.55 3.5 44.4 39.02 4.38 1 3.09 6.2 11.6 15 1.7e-008 50 1 21.0215 12.25 0 10 0.835514 -0.796359 -0.552757
 2.9 6.38 200 120 1 1.1 4 0.55 3.5 44.4 39.02 4.38 1 3.09 6.2 11.6 15 1.7e-008 50 1 21.0215 12.25 0 10 0.851897 -0.750621 -0.539792
 2.9 6.38 200 120 1 1.1 4 0.55 3.5 44.4 39.02 4.38 1 3.09 6.2 11.6 15 1.7e-008 50 1 21.0215 12.25 0 10 0.868279 -0.704121 -0.529688
 2.9 6.38 200 120 1 1.1 4 0.55 3.5 44.4 39.02 4.38 1 3.09 6.2 11.6 15 1.7e-008 50 1 21.0215 12.25 0 10 0.884662 -0.657018 -0.522939
 2.9 6.38 200 120 1 1.1 4 0.55 3.5 44.4 39.02 4.38 1 3.09 6.2 11.6 15 1.7e-008 50 1 21.0215 12.25 0 10 0.901045 -0.609774 -0.519974
 2.9 6.38 200 120 1 1.1 4 0.55 3.5 44.4 39.02 4.38 1 3.09 6.2 11.6 15 1.7e-008 50 1 21.0215 12.25 0 10 0.917427 -0.563085 -0.520992
 2.9 6.38 200 120 1 1.1 4 0.55 3.5 44.4 39.02 4.38 1 3.09 6.2 11.6 15 1.7e-008 50 1 21.0215 12.25 0 10 0.93381 -0.517725 -0.525856
 2.9 6.38 200 120 1 1.1 4 0.55 3.5 44.4 39.02 4.38 1 3.09 6.2 11.6 15 1.7e-008 50 1 21.0215 12.25 0 10 0.950193 -0.474351 -0.534091
 2.9 6.38 200 120 1 1.1 4 0.55 3.5 44.4 39.02 4.38 1 3.09 6.2 11.6 15 1.7e-008 50 1 21.0215 12.25 0 10 0.966575 -0.433337 -0.544989
 2.9 6.38 200 120 1 1.1 4 0.55 3.5 44.4 39.02 4.38 1 3.09 6.2 11.6 15 1.7e-008 50 1 21.0215 12.25 0 10 0.982958 -0.39468 -0.557793
 2.9 6.38 200 120 1 1.1 4 0.55 3.5 44.4 39.02 4.38 1 3.09 6.2 11.6 15 1.7e-008 50 1 21.0215 12.25 0 10 0.99934 -0.358031 -0.571909
 2.9 6.38 200 120 1 1.1 4 0.55 3.5 44.4 39.02 4.38 1 3.09 6.2 11.6 15 1.7e-008 50 1 21.0215 12.25 0 10 1.01572 -0.322832 -0.587071
 2.9 6.38 200 120 1 1.1 4 0.55 3.5 44.4 39.02 4.38 1 3.09 6.2 11.6 15 1.7e-008 50 1 21.0215 12.25 0 10 1.03211 -0.28853 -0.603414
 2.9 6.38 200 120 1 1.1 4 0.55 3.5 44.4 39.02 4.38 1 3.09 6.2 11.6 15 1.7e-008 50 1 21.0215 12.25 0 10 1.04849 -0.254811 -0.621409
 2.9 6.38 200 120 1 1.1 4 0.55 3.5 44.4 39.02 4.38 1 3.09 6.2 11.6 15 1.7e-008 50 1 21.0215 12.25 0 10 1.06487 -0.221749 -0.64168
 2.9 6.38 200 120 1 1.1 4 0.55 3.5 44.4 39.02 4.38 1 3.09 6.2 11.6 15 1.7e-008 50 1 21.0215 12.25 0 10 1.08125 -0.189852 -0.664758
 2.9 6.38 200 120 1 1.1 4 0.55 3.5 44.4 39.02 4.38 1 3.09 6.2 11.6 15 1.7e-008 50 1 21.0215 12.25 0 10 1.09764 -0.159952 -0.690845
 2.9 6.38 200 120 1 1.1 4 0.55 3.5 44.4 39.02 4.38 1 3.09 6.2 11.6 15 1.7e-008 50 1 21.0215 12.25 0 10 1.11402 -0.132977 -0.719663
 2.9 6.38 200 120 1 1.1 4 0.55 3.5 44.4 39.02 4.38 1 3.09 6.2 11.6 15 1.7e-008 50 1 21.0215 12.25 0 10 1.1304 -0.109672 -0.750456
 2.9 6.38 200 120 1 1.1 4 0.55 3.5 44.4 39.02 4.38 1 3.09 6.2 11.6 15 1.7e-008 50 1 21.0215 12.25 0 10 1.14678 -0.0903467 -0.782151
 2.9 6.38 200 120 1 1.1 4 0.55 3.5 44.4 39.02 4.38 1 3.09 6.2 11.6 15 1.7e-008 50 1 21.0215 12.25 0 10 1.16317 -0.0747566 -0.813631
 2.9 6.38 200 120 1 1.1 4 0.55 3.5 44.4 39.02 4.38 1 3.09 6.2 11.6 15 1.7e-008 50 1 21.0215 12.25 0 10 1.17955 -0.0621423 -0.844052
 2.9 6.38 200 120 1 1.1 4 0.55 3.5 44.4 39.02 4.38 1 3.09 6.2 11.6 15 1.7e-008 50 1 21.0215 12.25 0 10 1.19593 -0.0514491 -0.873095
 2.9 6.38 200 120 1 1.1 4 0.55 3.5 44.4 39.02 4.38 1 3.09 6.2 11.6 15 1.7e-008 50 1 21.0215 12.25 0 10 1.21231 -0.0416572 -0.901055
 2.9 6.38 200 120 1 1.1 4 0.55 3.5 44.4 39.02 4.38 1 3.09 6.2 11.6 15 1.7e-008 50 1 21.0215 12.25 0 10 1.2287 -0.0321225 -0.928747
 2.9 6.38 200 120 1 1.1 4 0.55 3.5 44.4 39.02 4.38 1 3.09 6.2 11.6 15 1.7e-008 50 1 21.0215 12.25 0 10 1.24508 -0.0228228 -0.957218
 2.9 6.38 200 120 1 1.1 4 0.55 3.5 44.4 39.02 4.38 1 3.09 6.2 11.6 15 1.7e-008 50 1 21.0215 12.25 0 10 1.26146 -0.0144084 -0.987361
 2.9 6.38 200 120 1 1.1 4 0.55 3.5 44.4 39.02 4.38 1 3.09 6.2 11.6 15 1.7e-008 50 1 21.0215 12.25 0 10 1.27785 -0.00802898 -1.01955
 2.9 6.38 200 120 1 1.1 4 0.55 3.5 44.4 39.02 4.38 1 3.09 6.2 11.6 15 1.7e-008 50 1 21.0215 12.25 0 10 1.29423 -0.00497445 -1.05342
 2.9 6.38 200 120 1 1.1 4 0.55 3.5 44.4 39.02 4.38 1 3.09 6.2 11.6 15 1.7e-008 50 1 21.0215 12.25 0 10 1.31061 -0.00623006 -1.08785
 2.9 6.38 200 120 1 1.1 4 0.55 3.5 44.4 39.02 4.38 1 3.09 6.2 11.6 15 1.7e-008 50 1 21.0215 12.25 0 10 1.32699 -0.0120885 -1.12125
 2.9 6.38 200 120 1 1.1 4 0.55 3.5 44.4 39.02 4.38 1 3.09 6.2 11.6 15 1.7e-008 50 1 21.0215 12.25 0 10 1.34338 -0.0219526 -1.15201
 2.9 6.38 200 120 1 1.1 4 0.55 3.5 44.4 39.02 4.38 1 3.09 6.2 11.6 15 1.7e-008 50 1 21.0215 12.25 0 10 1.35976 -0.0344196 -1.17896
 2.9 6.38 200 120 1 1.1 4 0.55 3.5 44.4 39.02 4.38 1 3.09 6.2 11.6 15 1.7e-008 50 1 21.0215 12.25 0 10 1.37614 -0.0476407 -1.20184
 2.9 6.38 200 120 1 1.1 4 0.55 3.5 44.4 39.02 4.38 1 3.09 6.2 11.6 15 1.7e-008 50 1 21.0215 12.25 0 10 1.39252 -0.0598641 -1.2214
 2.9 6.38 200 120 1 1.1 4 0.55 3.5 44.4 39.02 4.38 1 3.09 6.2 11.6 15 1.7e-008 50 1 21.0215 12.25 0 10 1.40891 -0.070004 -1.23922
 2.9 6.38 200 120 1 1.1 4 0.55 3.5 44.4 39.02 4.38 1 3.09 6.2 11.6 15 1.7e-008 50 1 21.0215 12.25 0 10 1.42529 -0.078041 -1.25728
 2.9 6.38 200 120 1 1.1 4 0.55 3.5 44.4 39.02 4.38 1 3.09 6.2 11.6 15 1.7e-008 50 1 21.0215 12.25 0 10 1.44167 -0.0851018 -1.27724
 2.9 6.38 200 120 1 1.1 4 0.55 3.5 44.4 39.02 4.38 1 3.09 6.2 11.6 15 1.7e-008 50 1 21.0215 12.25 0 10 1.45805 -0.0931625 -1.29988
 2.9 6.38 200 120 1 1.1 4 0.55 3.5 44.4 39.02 4.38 1 3.09 6.2 11.6 15 1.7e-008 50 1 21.0215 12.25 0 10 1.47444 -0.104424 -1.32468
 2.9 6.38 200 120 1 1.1 4 0.55 3.5 44.4 39.02 4.38 1 3.09 6.2 11.6 15 1.7e-008 50 1 21.0215 12.25 0 10 1.49082 -0.120545 -1.34983
 2.9 6.38 200 120 1 1.1 4 0.55 3.5 44.4 39.02 4.38 1 3.09 6.2 11.6 15 1.7e-008 50 1 21.0215 12.25 0 10 1.5072 -0.141964 -1.37273
 2.9 6.38 200 120 1 1.1 4 0.55 3.5 44.4 39.02 4.38 1 3.09 6.2 11.6 15 1.7e-008 50 1 21.0215 12.25 0 10 1.52358 -0.167557 -1.39071
 2.9 6.38 200 120 1 1.1 4 0.55 3.5 44.4 39.02 4.38 1 3.09 6.2 11.6 15 1.7e-008 50 1 21.0215 12.25 0 10 1.53997 -0.194781 -1.402
 2.9 6.38 200 120 1 1.1 4 0.55 3.5 44.4 39.02 4.38 1 3.09 6.2 11.6 15 1.7e-008 50 1 21.0215 12.25 0 10 1.55635 -0.220323 -1.4064
 2.9 6.38 200 120 1 1.1 4 0.55 3.5 44.4 39.02 4.38 1 3.09 6.2 11.6 15 1.7e-008 50 1 21.0215 12.25 0 10 1.57273 -0.241085 -1.40558
 2.9 6.38 200 120 1 1.1 4 0.55 3.5 44.4 39.02 4.38 1 3.09 6.2 11.6 15 1.7e-008 50 1 21.0215 12.25 0 10 1.58912 -0.255231 -1.40278
 2.9 6.38 200 120 1 1.1 4 0.55 3.5 44.4 39.02 4.38 1 3.09 6.2 11.6 15 1.7e-008 50 1 21.0215 12.25 0 10 1.6055 -0.262939 -1.40187
 2.9 6.38 200 120 1 1.1 4 0.55 3.5 44.4 39.02 4.38 1 3.09 6.2 11.6 15 1.7e-008 50 1 21.0215 12.25 0 10 1.62188 -0.26658 -1.40621
 2.9 6.38 200 120 1 1.1 4 0.55 3.5 44.4 39.02 4.38 1 3.09 6.2 11.6 15 1.7e-008 50 1 21.0215 12.25 0 10 1.63826 -0.270159 -1.41735
 2.9 6.38 200 120 1 1.1 4 0.55 3.5 44.4 39.02 4.38 1 3.09 6.2 11.6 15 1.7e-008 50 1 21.0215 12.25 0 10 1.65465 -0.278148 -1.43434
 2.9 6.38 200 120 1 1.1 4 0.55 3.5 44.4 39.02 4.38 1 3.09 6.2 11.6 15 1.7e-008 50 1 21.0215 12.25 0 10 1.67103 -0.293968 -1.45371
 2.9 6.38 200 120 1 1.1 4 0.55 3.5 44.4 39.02 4.38 1 3.09 6.2 11.6 15 1.7e-008 50 1 21.0215 12.25 0 10 1.68741 -0.318622 -1.47026
 2.9 6.38 200 120 1 1.1 4 0.55 3.5 44.4 39.02 4.38 1 3.09 6.2 11.6 15 1.7e-008 50 1 21.0215 12.25 0 10 1.70379 -0.349934 -1.47866
 2.9 6.38 200 120 1 1.1 4 0.55 3.5 44.4 39.02 4.38 1 3.09 6.2 11.6 15 1.7e-008 50 1 21.0215 12.25 0 10 1.72018 -0.382747 -1.47533
 2.9 6.38 200 120 1 1.1 4 0.55 3.5 44.4 39.02 4.38 1 3.09 6.2 11.6 15 1.7e-008 50 1 21.0215 12.25 0 10 1.73656 -0.410169 -1.45995
 2.9 6.38 200 120 1 1.1 4 0.55 3.5 44.4 39.02 4.38 1 3.09 6.2 11.6 15 1.7e-008 50 1 21.0215 12.25 0 10 1.75294 -0.425608 -1.43624
 2.9 6.38 200 120 1 1.1 4 0.55 3.5 44.4 39.02 4.38 1 3.09 6.2 11.6 15 1.7e-008 50 1 21.0215 12.25 0 10 1.76932 -0.425058 -1.41145
 2.9 6.38 200 120 1 1.1 4 0.55 3.5 44.4 39.02 4.38 1 3.09 6.2 11.6 15 1.7e-008 50 1 21.0215 12.25 0 10 1.78571 -0.408916 -1.39461
 2.9 6.38 200 120 1 1.1 4 0.55 3.5 44.4 39.02 4.38 1 3.09 6.2 11.6 15 1.7e-008 50 1 21.0215 12.25 0 10 1.80209 -0.382665 -1.39388
 2.9 6.38 200 120 1 1.1 4 0.55 3.5 44.4 39.02 4.38 1 3.09 6.2 11.6 15 1.7e-008 50 1 21.0215 12.25 0 10 1.81847 -0.355986 -1.4137
 2.9 6.38 200 120 1 1.1 4 0.55 3.5 44.4 39.02 4.38 1 3.09 6.2 11.6 15 1.7e-008 50 1 21.0215 12.25 0 10 1.83485 -0.340336 -1.45265
 2.9 6.38 200 120 1 1.1 4 0.55 3.5 44.4 39.02 4.38 1 3.09 6.2 11.6 15 1.7e-008 50 1 21.0215 12.25 0 10 1.85124 -0.34543 -1.50283
 2.9 6.38 200 120 1 1.1 4 0.55 3.5 44.4 39.02 4.38 1 3.09 6.2 11.6 15 1.7e-008 50 1 21.0215 12.25 0 10 1.86762 -0.375601 -1.55123
 2.9 6.38 200 120 1 1.1 4 0.55 3.5 44.4 39.02 4.38 1 3.09 6.2 11.6 15 1.7e-008 50 1 21.0215 12.25 0 10 1.884 -0.427053 -1.58303
 2.9 6.38 200 120 1 1.1 4 0.55 3.5 44.4 39.02 4.38 1 3.09 6.2 11.6 15 1.7e-008 50 1 21.0215 12.25 0 10 1.90039 -0.487028 -1.58639
 2.9 6.38 200 120 1 1.1 4 0.55 3.5 44.4 39.02 4.38 1 3.09 6.2 11.6 15 1.7e-008 50 1 21.0215 12.25 0 10 1.91677 -0.535379 -1.55737
 2.9 6.38 200 120 1 1.1 4 0.55 3.5 44.4 39.02 4.38 1 3.09 6.2 11.6 15 1.7e-008 50 1 21.0215 12.25 0 10 1.93315 -0.548442 -1.50418
 2.9 6.38 200 120 1 1.1 4 0.55 3.5 44.4 39.02 4.38 1 3.09 6.2 11.6 15 1.7e-008 50 1 21.0215 12.25 0 10 1.94953 -0.504278 -1.44976
 2.9 6.38 200 120 1 1.1 4 0.55 3.5 44.4 39.02 4.38 1 3.09 6.2 11.6 15 1.7e-008 50 1 21.0215 12.25 0 10 1.96592 -0.387616 -1.43331
 2.9 6.38 200 120 1 1.1 4 0.55 3.5 44.4 39.02 4.38 1 3.09 6.2 11.6 15 1.7e-008 50 1 21.0215 12.25 0 10 1.9823 -0.19198 -1.51485
 2.9 6.38 200 120 1 1.1 4 0.55 3.5 44.4 39.02 4.38 1 3.09 6.2 11.6 15 1.7e-008 50 1 21.0215 12.25 0 10 1.99868 0.0858047 -1.79994
 2.9 6.38 200 120 1 1.1 4 0.55 3.5 44.4 39.02 4.38 1 3.09 6.2 11.6 15 1.7e-008 50 1 21.0215 12.25 0 10 2.01506 0.476391 -2.58592
 2.9 6.38 200 120 1 1.1 4 0.55 3.5 44.4 39.02 4.38 1 3.09 6.2 11.6 15 1.7e-008 50 1 21.0215 12.25 0 10 2.03145 1.16673 -6.14337
 2.9 6.38 200 120 1 1.1 4 0.55 3.5 44.4 39.02 4.38 1 3.09 6.2 11.6 15 1.7e-008 50 1 21.0215 12.25 0 10 2.04783 -3.09528 5.34009
 2.9 6.38 200 120 1 1.1 4 0.55 3.5 44.4 39.02 4.38 1 3.09 6.2 11.6 15 1.7e-008 75 1 21.0215 12.25 0 10 0.00955653 -0.0552568 -2.87071
 2.9 6.38 200 120 1 1.1 4 0.55 3.5 44.4 39.02 4.38 1 3.09 6.2 11.6 15 1.7e-008 75 1 21.0215 12.25 0 10 0.0204783 -0.106376 -2.8947
 2.9 6.38 200 120 1 1.1 4 0.55 3.5 44.4 39.02 4.38 1 3.09 6.2 11.6 15 1.7e-008 75 1 21.0215 12.25 0 10 0.0314 -0.148497 -2.88854
 2.9 6.38 200 120 1 1.1 4 0.55 3.5 44.4 39.02 4.38 1 3.09 6.2 11.6 15 1.7e-008 75 1 21.0215 12.25 0 10 0.0423218 -0.203814 -2.87534
 2.9 6.38 200 120 1 1.1 4 0.55 3.5 44.4 39.02 4.38 1 3.09 6.2 11.6 15 1.7e-008 75 1 21.0215 12.25 0 10 0.0532436 -0.261556 -2.86989
 2.9 6.38 200 120 1 1.1 4 0.55 3.5 44.4 39.02 4.38 1 3.09 6.2 11.6 15 1.7e-008 75 1 21.0215 12.25 0 10 0.0641653 -0.311204 -2.86394
 2.9 6.38 200 120 1 1.1 4 0.55 3.5 44.4 39.02 4.38 1 3.09 6.2 11.6 15 1.7e-008 75 1 21.0215 12.25 0 10 0.0750871 -0.360025 -2.84973
 2.9 6.38 200 120 1 1.1 4 0.55 3.5 44.4 39.02 4.38 1 3.09 6.2 11.6 15 1.7e-008 75 1 21.0215 12.25 0 10 0.0860088 -0.413808 -2.83408
 2.9 6.38 200 120 1 1.1 4 0.55 3.5 44.4 39.02 4.38 1 3.09 6.2 11.6 15 1.7e-008 75 1 21.0215 12.25 0 10 0.0969306 -0.466116 -2.82137
 2.9 6.38 200 120 1 1.1 4 0.55 3.5 44.4 39.02 4.38 1 3.09 6.2 11.6 15 1.7e-008 75 1 21.0215 12.25 0 10 0.107852 -0.513734 -2.80562
 2.9 6.38 200 120 1 1.1 4 0.55 3.5 44.4 39.02 4.38 1 3.09 6.2 11.6 15 1.7e-008 75 1 21.0215 12.25 0 10 0.118774 -0.562266 -2.78473
 2.9 6.38 200 120 1 1.1 4 0.55 3.5 44.4 39.02 4.38 1 3.09 6.2 11.6 15 1.7e-008 75 1 21.0215 12.25 0 10 0.129696 -0.612905 -2.76406
 2.9 6.38 200 120 1 1.1 4 0.55 3.5 44.4 39.02 4.38 1 3.09 6.2 11.6 15 1.7e-008 75 1 21.0215 12.25 0 10 0.140618 -0.660612 -2.74419
 2.9 6.38 200 120 1 1.1 4 0.55 3.5 44.4 39.02 4.38 1 3.09 6.2 11.6 15 1.7e-008 75 1 21.0215 12.25 0 10 0.151539 -0.705436 -2.72053
 2.9 6.38 200 120 1 1.1 4 0.55 3.5 44.4 39.02 4.38 1 3.09 6.2 11.6 15 1.7e-008 75 1 21.0215 12.25 0 10 0.162461 -0.751534 -2.69379
 2.9 6.38 200 120 1 1.1 4 0.55 3.5 44.4 39.02 4.38 1 3.09 6.2 11.6 15 1.7e-008 75 1 21.0215 12.25 0 10 0.173383 -0.797714 -2.66785
 2.9 6.38 200 120 1 1.1 4 0.55 3.5 44.4 39.02 4.38 1 3.09 6.2 11.6 15 1.7e-008 75 1 21.0215 12.25 0 10 0.184305 -0.840505 -2.64122
 2.9 6.38 200 120 1 1.1 4 0.55 3.5 44.4 39.02 4.38 1 3.09 6.2 11.6 15 1.7e-008 75 1 21.0215 12.25 0 10 0.195226 -0.881702 -2.61095
 2.9 6.38 200 120 1 1.1 4 0.55 3.5 44.4 39.02 4.38 1 3.09 6.2 11.6 15 1.7e-008 75 1 21.0215 12.25 0 10 0.206148 -0.923825 -2.57921
 2.9 6.38 200 120 1 1.1 4 0.55 3.5 44.4 39.02 4.38 1 3.09 6.2 11.6 15 1.7e-008 75 1 21.0215 12.25 0 10 0.21707 -0.964504 -2.54821
 2.9 6.38 200 120 1 1.1 4 0.55 3.5 44.4 39.02 4.38 1 3.09 6.2 11.6 15 1.7e-008 75 1 21.0215 12.25 0 10 0.227992 -1.00195 -2.51554
 2.9 6.38 200 120 1 1.1 4 0.55 3.5 44.4 39.02 4.38 1 3.09 6.2 11.6 15 1.7e-008 75 1 21.0215 12.25 0 10 0.238913 -1.03868 -2.47993
 2.9 6.38 200 120 1 1.1 4 0.55 3.5 44.4 39.02 4.38 1 3.09 6.2 11.6 15 1.7e-008 75 1 21.0215 12.25 0 10 0.249835 -1.07557 -2.44403
 2.9 6.38 200 120 1 1.1 4 0.55 3.5 44.4 39.02 4.38 1 3.09 6.2 11.6 15 1.7e-008 75 1 21.0215 12.25 0 10 0.260757 -1.10999 -2.40846
 2.9 6.38 200 120 1 1.1 4 0.55 3.5 44.4 39.02 4.38 1 3.09 6.2 11.6 15 1.7e-008 75 1 21.0215 12.25 0 10 0.271679 -1.14172 -2.37073
 2.9 6.38 200 120 1 1.1 4 0.55 3.5 44.4 39.02 4.38 1 3.09 6.2 11.6 15 1.7e-008 75 1 21.0215 12.25 0 10 0.2826 -1.17318 -2.33108
 2.9 6.38 200 120 1 1.1 4 0.55 3.5 44.4 39.02 4.38 1 3.09 6.2 11.6 15 1.7e-008 75 1 21.0215 12.25 0 10 0.293522 -1.20384 -2.29187
 2.9 6.38 200 120 1 1.1 4 0.55 3.5 44.4 39.02 4.38 1 3.09 6.2 11.6 15 1.7e-008 75 1 21.0215 12.25 0 10 0.304444 -1.23153 -2.25243
 2.9 6.38 200 120 1 1.1 4 0.55 3.5 44.4 39.02 4.38 1 3.09 6.2 11.6 15 1.7e-008 75 1 21.0215 12.25 0 10 0.315366 -1.25722 -2.21085
 2.9 6.38 200 120 1 1.1 4 0.55 3.5 44.4 39.02 4.38 1 3.09 6.2 11.6 15 1.7e-008 75 1 21.0215 12.25 0 10 0.326287 -1.28267 -2.16842
 2.9 6.38 200 120 1 1.1 4 0.55 3.5 44.4 39.02 4.38 1 3.09 6.2 11.6 15 1.7e-008 75 1 21.0215 12.25 0 10 0.337209 -1.30642 -2.12676
 2.9 6.38 200 120 1 1.1 4 0.55 3.5 44.4 39.02 4.38 1 3.09 6.2 11.6 15 1.7e-008 75 1 21.0215 12.25 0 10 0.348131 -1.32716 -2.08435
 2.9 6.38 200 120 1 1.1 4 0.55 3.5 44.4 39.02 4.38 1 3.09 6.2 11.6 15 1.7e-008 75 1 21.0215 12.25 0 10 0.359053 -1.34657 -2.04023
 2.9 6.38 200 120 1 1.1 4 0.55 3.5 44.4 39.02 4.38 1 3.09 6.2 11.6 15 1.7e-008 75 1 21.0215 12.25 0 10 0.369974 -1.36542 -1.99625
 2.9 6.38 200 120 1 1.1 4 0.55 3.5 44.4 39.02 4.38 1 3.09 6.2 11.6 15 1.7e-008 75 1 21.0215 12.25 0 10 0.380896 -1.38188 -1.953
 2.9 6.38 200 120 1 1.1 4 0.55 3.5 44.4 39.02 4.38 1 3.09 6.2 11.6 15 1.7e-008 75 1 21.0215 12.25 0 10 0.391818 -1.39567 -1.9087
 2.9 6.38 200 120 1 1.1 4 0.55 3.5 44.4 39.02 4.38 1 3.09 6.2 11.6 15 1.7e-008 75 1 21.0215 12.25 0 10 0.40274 -1.40862 -1.86342
 2.9 6.38 200 120 1 1.1 4 0.55 3.5 44.4 39.02 4.38 1 3.09 6.2 11.6 15 1.7e-008 75 1 21.0215 12.25 0 10 0.413661 -1.42048 -1.81901
 2.9 6.38 200 120 1 1.1 4 0.55 3.5 44.4 39.02 4.38 1 3.09 6.2 11.6 15 1.7e-008 75 1 21.0215 12.25 0 10 0.424583 -1.42957 -1.77507
 2.9 6.38 200 120 1 1.1 4 0.55 3.5 44.4 39.02 4.38 1 3.09 6.2 11.6 15 1.7e-008 75 1 21.0215 12.25 0 10 0.435505 -1.43659 -1.73007
 2.9 6.38 200 120 1 1.1 4 0.55 3.5 44.4 39.02 4.38 1 3.09 6.2 11.6 15 1.7e-008 75 1 21.0215 12.25 0 10 0.446427 -1.44299 -1.68498
 2.9 6.38 200 120 1 1.1 4 0.55 3.5 44.4 39.02 4.38 1 3.09 6.2 11.6 15 1.7e-008 75 1 21.0215 12.25 0 10 0.457348 -1.44771 -1.64115
 2.9 6.38 200 120 1 1.1 4 0.55 3.5 44.4 39.02 4.38 1 3.09 6.2 11.6 15 1.7e-008 75 1 21.0215 12.25 0 10 0.46827 -1.44966 -1.59745
 2.9 6.38 200 120 1 1.1 4 0.55 3.5 44.4 39.02 4.38 1 3.09 6.2 11.6 15 1.7e-008 75 1 21.0215 12.25 0 10 0.479192 -1.45019 -1.55302
 2.9 6.38 200 120 1 1.1 4 0.55 3.5 44.4 39.02 4.38 1 3.09 6.2 11.6 15 1.7e-008 75 1 21.0215 12.25 0 10 0.490114 -1.45004 -1.50935
 2.9 6.38 200 120 1 1.1 4 0.55 3.5 44.4 39.02 4.38 1 3.09 6.2 11.6 15 1.7e-008 75 1 21.0215 12.25 0 10 0.501035 -1.44774 -1.46701
 2.9 6.38 200 120 1 1.1 4 0.55 3.5 44.4 39.02 4.38 1 3.09 6.2 11.6 15 1.7e-008 75 1 21.0215 12.25 0 10 0.511957 -1.44302 -1.42455
 2.9 6.38 200 120 1 1.1 4 0.55 3.5 44.4 39.02 4.38 1 3.09 6.2 11.6 15 1.7e-008 75 1 21.0215 12.25 0 10 0.522879 -1.43744 -1.38193
 2.9 6.38 200 120 1 1.1 4 0.55 3.5 44.4 39.02 4.38 1 3.09 6.2 11.6 15 1.7e-008 75 1 21.0215 12.25 0 10 0.533801 -1.43091 -1.34075
 2.9 6.38 200 120 1 1.1 4 0.55 3.5 44.4 39.02 4.38 1 3.09 6.2 11.6 15 1.7e-008 75 1 21.0215 12.25 0 10 0.544722 -1.42198 -1.30072
 2.9 6.38 200 120 1 1.1 4 0.55 3.5 44.4 39.02 4.38 1 3.09 6.2 11.6 15 1.7e-008 75 1 21.0215 12.25 0 10 0.555644 -1.41122 -1.2605
 2.9 6.38 200 120 1 1.1 4 0.55 3.5 44.4 39.02 4.38 1 3.09 6.2 11.6 15 1.7e-008 75 1 21.0215 12.25 0 10 0.566566 -1.39998 -1.22087
 2.9 6.38 200 120 1 1.1 4 0.55 3.5 44.4 39.02 4.38 1 3.09 6.2 11.6 15 1.7e-008 75 1 21.0215 12.25 0 10 0.577488 -1.3874 -1.18306
 2.9 6.38 200 120 1 1.1 4 0.55 3.5 44.4 39.02 4.38 1 3.09 6.2 11.6 15 1.7e-008 75 1 21.0215 12.25 0 10 0.588409 -1.37249 -1.14609
 2.9 6.38 200 120 1 1.1 4 0.55 3.5 44.4 39.02 4.38 1 3.09 6.2 11.6 15 1.7e-008 75 1 21.0215 12.25 0 10 0.599331 -1.35645 -1.10912
 2.9 6.38 200 120 1 1.1 4 0.55 3.5 44.4 39.02 4.38 1 3.09 6.2 11.6 15 1.7e-008 75 1 21.0215 12.25 0 10 0.610253 -1.34004 -1.07348
 2.9 6.38 200 120 1 1.1 4 0.55 3.5 44.4 39.02 4.38 1 3.09 6.2 11.6 15 1.7e-008 75 1 21.0215 12.25 0 10 0.621175 -1.32195 -1.03973
 2.9 6.38 200 120 1 1.1 4 0.55 3.5 44.4 39.02 4.38 1 3.09 6.2 11.6 15 1.7e-008 75 1 21.0215 12.25 0 10 0.632097 -1.30192 -1.00651
 2.9 6.38 200 120 1 1.1 4 0.55 3.5 44.4 39.02 4.38 1 3.09 6.2 11.6 15 1.7e-008 75 1 21.0215 12.25 0 10 0.643018 -1.28141 -0.973737
 2.9 6.38 200 120 1 1.1 4 0.55 3.5 44.4 39.02 4.38 1 3.09 6.2 11.6 15 1.7e-008 75 1 21.0215 12.25 0 10 0.65394 -1.2604 -0.942879
 2.9 6.38 200 120 1 1.1 4 0.55 3.5 44.4 39.02 4.38 1 3.09 6.2 11.6 15 1.7e-008 75 1 21.0215 12.25 0 10 0.664862 -1.23755 -0.91369
 2.9 6.38 200 120 1 1.1 4 0.55 3.5 44.4 39.02 4.38 1 3.09 6.2 11.6 15 1.7e-008 75 1 21.0215 12.25 0 10 0.675784 -1.21339 -0.884875
 2.9 6.38 200 120 1 1.1 4 0.55 3.5 44.4 39.02 4.38 1 3.09 6.2 11.6 15 1.7e-008 75 1 21.0215 12.25 0 10 0.686705 -1.18923 -0.857114
 2.9 6.38 200 120 1 1.1 4 0.55 3.5 44.4 39.02 4.38 1 3.09 6.2 11.6 15 1.7e-008 75 1 21.0215 12.25 0 10 0.697627 -1.16429 -0.831578
 2.9 6.38 200 120 1 1.1 4 0.55 3.5 44.4 39.02 4.38 1 3.09 6.2 11.6 15 1.7e-008 75 1 21.0215 12.25 0 10 0.708549 -1.13763 -0.807326
 2.9 6.38 200 120 1 1.1 4 0.55 3.5 44.4 39.02 4.38 1 3.09 6.2 11.6 15 1.7e-008 75 1 21.0215 12.25 0 10 0.719471 -1.11041 -0.783517
 2.9 6.38 200 120 1 1.1 4 0.55 3.5 44.4 39.02 4.38 1 3.09 6.2 11.6 15 1.7e-008 75 1 21.0215 12.25 0 10 0.730392 -1.08338 -0.761379
 2.9 6.38 200 120 1 1.1 4 0.55 3.5 44.4 39.02 4.38 1 3.09 6.2 11.6 15 1.7e-008 75 1 21.0215 12.25 0 10 0.741314 -1.05532 -0.741457
 2.9 6.38 200 120 1 1.1 4 0.55 3.5 44.4 39.02 4.38 1 3.09 6.2 11.6 15 1.7e-008 75 1 21.0215 12.25 0 10 0.752236 -1.02593 -0.722409
 2.9 6.38 200 120 1 1.1 4 0.55 3.5 44.4 39.02 4.38 1 3.09 6.2 11.6 15 1.7e-008 75 1 21.0215 12.25 0 10 0.763158 -0.996693 -0.704108
 2.9 6.38 200 120 1 1.1 4 0.55 3.5 44.4 39.02 4.38 1 3.09 6.2 11.6 15 1.7e-008 75 1 21.0215 12.25 0 10 0.774079 -0.967594 -0.687963
 2.9 6.38 200 120 1 1.1 4 0.55 3.5 44.4 39.02 4.38 1 3.09 6.2 11.6 15 1.7e-008 75 1 21.0215 12.25 0 10 0.785001 -0.937319 -0.673725
 2.9 6.38 200 120 1 1.1 4 0.55 3.5 44.4 39.02 4.38 1 3.09 6.2 11.6 15 1.7e-008 75 1 21.0215 12.25 0 10 0.795923 -0.906383 -0.660068
 2.9 6.38 200 120 1 1.1 4 0.55 3.5 44.4 39.02 4.38 1 3.09 6.2 11.6 15 1.7e-008 75 1 21.0215 12.25 0 10 0.806845 -0.876102 -0.647634
 2.9 6.38 200 120 1 1.1 4 0.55 3.5 44.4 39.02 4.38 1 3.09 6.2 11.6 15 1.7e-008 75 1 21.0215 12.25 0 10 0.817766 -0.845724 -0.637576
 2.9 6.38 200 120 1 1.1 4 0.55 3.5 44.4 39.02 4.38 1 3.09 6.2 11.6 15 1.7e-008 75 1 21.0215 12.25 0 10 0.828688 -0.81428 -0.628917
 2.9 6.38 200 120 1 1.1 4 0.55 3.5 44.4 39.02 4.38 1 3.09 6.2 11.6 15 1.7e-008 75 1 21.0215 12.25 0 10 0.83961 -0.782947 -0.620769
 2.9 6.38 200 120 1 1.1 4 0.55 3.5 44.4 39.02 4.38 1 3.09 6.2 11.6 15 1.7e-008 75 1 21.0215 12.25 0 10 0.850532 -0.752498 -0.614361
 2.9 6.38 200 120 1 1.1 4 0.55 3.5 44.4 39.02 4.38 1 3.09 6.2 11.6 15 1.7e-008 75 1 21.0215 12.25 0 10 0.861453 -0.721663 -0.610212
 2.9 6.38 200 120 1 1.1 4 0.55 3.5 44.4 39.02 4.38 1 3.09 6.2 11.6 15 1.7e-008 75 1 21.0215 12.25 0 10 0.872375 -0.690164 -0.606907
 2.9 6.38 200 120 1 1.1 4 0.55 3.5 44.4 39.02 4.38 1 3.09 6.2 11.6 15 1.7e-008 75 1 21.0215 12.25 0 10 0.883297 -0.659501 -0.604302
 2.9 6.38 200 120 1 1.1 4 0.55 3.5 44.4 39.02 4.38 1 3.09 6.2 11.6 15 1.7e-008 75 1 21.0215 12.25 0 10 0.894219 -0.629647 -0.603831
 2.9 6.38 200 120 1 1.1 4 0.55 3.5 44.4 39.02 4.38 1 3.09 6.2 11.6 15 1.7e-008 75 1 21.0215 12.25 0 10 0.90514 -0.599225 -0.605179
 2.9 6.38 200 120 1 1.1 4 0.55 3.5 44.4 39.02 4.38 1 3.09 6.2 11.6 15 1.7e-008 75 1 21.0215 12.25 0 10 0.916062 -0.56879 -0.606937
 2.9 6.38 200 120 1 1.1 4 0.55 3.5 44.4 39.02 4.38 1 3.09 6.2 11.6 15 1.7e-008 75 1 21.0215 12.25 0 10 0.926984 -0.539703 -0.609786
 2.9 6.38 200 120 1 1.1 4 0.55 3.5 44.4 39.02 4.38 1 3.09 6.2 11.6 15 1.7e-008 75 1 21.0215 12.25 0 10 0.937906 -0.511115 -0.614894
 2.9 6.38 200 120 1 1.1 4 0.55 3.5 44.4 39.02 4.38 1 3.09 6.2 11.6 15 1.7e-008 75 1 21.0215 12.25 0 10 0.948827 -0.48202 -0.62116
 2.9 6.38 200 120 1 1.1 4 0.55 3.5 44.4 39.02 4.38 1 3.09 6.2 11.6 15 1.7e-008 75 1 21.0215 12.25 0 10 0.959749 -0.453688 -0.627655
 2.9 6.38 200 120 1 1.1 4 0.55 3.5 44.4 39.02 4.38 1 3.09 6.2 11.6 15 1.7e-008 75 1 21.0215 12.25 0 10 0.970671 -0.426879 -0.635702
 2.9 6.38 200 120 1 1.1 4 0.55 3.5 44.4 39.02 4.38 1 3.09 6.2 11.6 15 1.7e-008 75 1 21.0215 12.25 0 10 0.981593 -0.400176 -0.645771
 2.9 6.38 200 120 1 1.1 4 0.55 3.5 44.4 39.02 4.38 1 3.09 6.2 11.6 15 1.7e-008 75 1 21.0215 12.25 0 10 0.992514 -0.373336 -0.65629
 2.9 6.38 200 120 1 1.1 4 0.55 3.5 44.4 39.02 4.38 1 3.09 6.2 11.6 15 1.7e-008 75 1 21.0215 12.25 0 10 1.00344 -0.347972 -0.667168
 2.9 6.38 200 120 1 1.1 4 0.55 3.5 44.4 39.02 4.38 1 3.09 6.2 11.6 15 1.7e-008 75 1 21.0215 12.25 0 10 1.01436 -0.32394 -0.679942
 2.9 6.38 200 120 1 1.1 4 0.55 3.5 44.4 39.02 4.38 1 3.09 6.2 11.6 15 1.7e-008 75 1 21.0215 12.25 0 10 1.02528 -0.299722 -0.694146
 2.9 6.38 200 120 1 1.1 4 0.55 3.5 44.4 39.02 4.38 1 3.09 6.2 11.6 15 1.7e-008 75 1 21.0215 12.25 0 10 1.0362 -0.276015 -0.70825
 2.9 6.38 200 120 1 1.1 4 0.55 3.5 44.4 39.02 4.38 1 3.09 6.2 11.6 15 1.7e-008 75 1 21.0215 12.25 0 10 1.04712 -0.254236 -0.723098
 2.9 6.38 200 120 1 1.1 4 0.55 3.5 44.4 39.02 4.38 1 3.09 6.2 11.6 15 1.7e-008 75 1 21.0215 12.25 0 10 1.05804 -0.233309 -0.739894
 2.9 6.38 200 120 1 1.1 4 0.55 3.5 44.4 39.02 4.38 1 3.09 6.2 11.6 15 1.7e-008 75 1 21.0215 12.25 0 10 1.06897 -0.21218 -0.75729
 2.9 6.38 200 120 1 1.1 4 0.55 3.5 44.4 39.02 4.38 1 3.09 6.2 11.6 15 1.7e-008 75 1 21.0215 12.25 0 10 1.07989 -0.192345 -0.774359
 2.9 6.38 200 120 1 1.1 4 0.55 3.5 44.4 39.02 4.38 1 3.09 6.2 11.6 15 1.7e-008 75 1 21.0215 12.25 0 10 1.09081 -0.174478 -0.792664
 2.9 6.38 200 120 1 1.1 4 0.55 3.5 44.4 39.02 4.38 1 3.09 6.2 11.6 15 1.7e-008 75 1 21.0215 12.25 0 10 1.10173 -0.156878 -0.812555
 2.9 6.38 200 120 1 1.1 4 0.55 3.5 44.4 39.02 4.38 1 3.09 6.2 11.6 15 1.7e-008 75 1 21.0215 12.25 0 10 1.11265 -0.139433 -0.832193
 2.9 6.38 200 120 1 1.1 4 0.55 3.5 44.4 39.02 4.38 1 3.09 6.2 11.6 15 1.7e-008 75 1 21.0215 12.25 0 10 1.12358 -0.123974 -0.851681
 2.9 6.38 200 120 1 1.1 4 0.55 3.5 44.4 39.02 4.38 1 3.09 6.2 11.6 15 1.7e-008 75 1 21.0215 12.25 0 10 1.1345 -0.110069 -0.872771
 2.9 6.38 200 120 1 1.1 4 0.55 3.5 44.4 39.02 4.38 1 3.09 6.2 11.6 15 1.7e-008 75 1 21.0215 12.25 0 10 1.14542 -0.0959842 -0.894674
 2.9 6.38 200 120 1 1.1 4 0.55 3.5 44.4 39.02 4.38 1 3.09 6.2 11.6 15 1.7e-008 75 1 21.0215 12.25 0 10 1.15634 -0.0827515 -0.915706
 2.9 6.38 200 120 1 1.1 4 0.55 3.5 44.4 39.02 4.38 1 3.09 6.2 11.6 15 1.7e-008 75 1 21.0215 12.25 0 10 1.16726 -0.0718536 -0.937113
 2.9 6.38 200 120 1 1.1 4 0.55 3.5 44.4 39.02 4.38 1 3.09 6.2 11.6 15 1.7e-008 75 1 21.0215 12.25 0 10 1.17818 -0.0617454 -0.960122
 2.9 6.38 200 120 1 1.1 4 0.55 3.5 44.4 39.02 4.38 1 3.09 6.2 11.6 15 1.7e-008 75 1 21.0215 12.25 0 10 1.18911 -0.051387 -0.982913
 2.9 6.38 200 120 1 1.1 4 0.55 3.5 44.4 39.02 4.38 1 3.09 6.2 11.6 15 1.7e-008 75 1 21.0215 12.25 0 10 1.20003 -0.0427372 -1.00468
 2.9 6.38 200 120 1 1.1 4 0.55 3.5 44.4 39.02 4.38 1 3.09 6.2 11.6 15 1.7e-008 75 1 21.0215 12.25 0 10 1.21095 -0.0362315 -1.02748
 2.9 6.38 200 120 1 1.1 4 0.55 3.5 44.4 39.02 4.38 1 3.09 6.2 11.6 15 1.7e-008 75 1 21.0215 12.25 0 10 1.22187 -0.029651 -1.05136
 2.9 6.38 200 120 1 1.1 4 0.55 3.5 44.4 39.02 4.38 1 3.09 6.2 11.6 15 1.7e-008 75 1 21.0215 12.25 0 10 1.23279 -0.0232624 -1.07401
 2.9 6.38 200 120 1 1.1 4 0.55 3.5 44.4 39.02 4.38 1 3.09 6.2 11.6 15 1.7e-008 75 1 21.0215 12.25 0 10 1.24371 -0.0192945 -1.09606
 2.9 6.38 200 120 1 1.1 4 0.55 3.5 44.4 39.02 4.38 1 3.09 6.2 11.6 15 1.7e-008 75 1 21.0215 12.25 0 10 1.25464 -0.016685 -1.11961
 2.9 6.38 200 120 1 1.1 4 0.55 3.5 44.4 39.02 4.38 1 3.09 6.2 11.6 15 1.7e-008 75 1 21.0215 12.25 0 10 1.26556 -0.0133885 -1.1432
 2.9 6.38 200 120 1 1.1 4 0.55 3.5 44.4 39.02 4.38 1 3.09 6.2 11.6 15 1.7e-008 75 1 21.0215 12.25 0 10 1.27648 -0.0111963 -1.16495
 2.9 6.38 200 120 1 1.1 4 0.55 3.5 44.4 39.02 4.38 1 3.09 6.2 11.6 15 1.7e-008 75 1 21.0215 12.25 0 10 1.2874 -0.0116357 -1.18699
 2.9 6.38 200 120 1 1.1 4 0.55 3.5 44.4 39.02 4.38 1 3.09 6.2 11.6 15 1.7e-008 75 1 21.0215 12.25 0 10 1.29832 -0.0122115 -1.21047
 2.9 6.38 200 120 1 1.1 4 0.55 3.5 44.4 39.02 4.38 1 3.09 6.2 11.6 15 1.7e-008 75 1 21.0215 12.25 0 10 1.30925 -0.0120853 -1.23264
 2.9 6.38 200 120 1 1.1 4 0.55 3.5 44.4 39.02 4.38 1 3.09 6.2 11.6 15 1.7e-008 75 1 21.0215 12.25 0 10 1.32017 -0.0141818 -1.25307
 2.9 6.38 200 120 1 1.1 4 0.55 3.5 44.4 39.02 4.38 1 3.09 6.2 11.6 15 1.7e-008 75 1 21.0215 12.25 0 10 1.33109 -0.018332 -1.27484
 2.9 6.38 200 120 1 1.1 4 0.55 3.5 44.4 39.02 4.38 1 3.09 6.2 11.6 15 1.7e-008 75 1 21.0215 12.25 0 10 1.34201 -0.0213478 -1.29723
 2.9 6.38 200 120 1 1.1 4 0.55 3.5 44.4 39.02 4.38 1 3.09 6.2 11.6 15 1.7e-008 75 1 21.0215 12.25 0 10 1.35293 -0.0244511 -1.31706
 2.9 6.38 200 120 1 1.1 4 0.55 3.5 44.4 39.02 4.38 1 3.09 6.2 11.6 15 1.7e-008 75 1 21.0215 12.25 0 10 1.36385 -0.0306311 -1.33616
 2.9 6.38 200 120 1 1.1 4 0.55 3.5 44.4 39.02 4.38 1 3.09 6.2 11.6 15 1.7e-008 100 1 21.0215 12.25 0 10 0.00614349 0.135647 -2.92127
 2.9 6.38 200 120 1 1.1 4 0.55 3.5 44.4 39.02 4.38 1 3.09 6.2 11.6 15 1.7e-008 100 1 21.0215 12.25 0 10 0.0143348 -0.137909 -2.91047
 2.9 6.38 200 120 1 1.1 4 0.55 3.5 44.4 39.02 4.38 1 3.09 6.2 11.6 15 1.7e-008 100 1 21.0215 12.25 0 10 0.0225261 -0.0669474 -2.89928
 2.9 6.38 200 120 1 1.1 4 0.55 3.5 44.4 39.02 4.38 1 3.09 6.2 11.6 15 1.7e-008 100 1 21.0215 12.25 0 10 0.0307174 -0.178932 -2.87656
 2.9 6.38 200 120 1 1.1 4 0.55 3.5 44.4 39.02 4.38 1 3.09 6.2 11.6 15 1.7e-008 100 1 21.0215 12.25 0 10 0.0389087 -0.169645 -2.89855
 2.9 6.38 200 120 1 1.1 4 0.55 3.5 44.4 39.02 4.38 1 3.09 6.2 11.6 15 1.7e-008 100 1 21.0215 12.25 0 10 0.0471001 -0.240982 -2.86053
 2.9 6.38 200 120 1 1.1 4 0.55 3.5 44.4 39.02 4.38 1 3.09 6.2 11.6 15 1.7e-008 100 1 21.0215 12.25 0 10 0.0552914 -0.262319 -2.88712
 2.9 6.38 200 120 1 1.1 4 0.55 3.5 44.4 39.02 4.38 1 3.09 6.2 11.6 15 1.7e-008 100 1 21.0215 12.25 0 10 0.0634827 -0.308223 -2.84751
 2.9 6.38 200 120 1 1.1 4 0.55 3.5 44.4 39.02 4.38 1 3.09 6.2 11.6 15 1.7e-008 100 1 21.0215 12.25 0 10 0.071674 -0.349403 -2.86754
 2.9 6.38 200 120 1 1.1 4 0.55 3.5 44.4 39.02 4.38 1 3.09 6.2 11.6 15 1.7e-008 100 1 21.0215 12.25 0 10 0.0798653 -0.378769 -2.83403
 2.9 6.38 200 120 1 1.1 4 0.55 3.5 44.4 39.02 4.38 1 3.09 6.2 11.6 15 1.7e-008 100 1 21.0215 12.25 0 10 0.0880566 -0.43128 -2.84185
 2.9 6.38 200 120 1 1.1 4 0.55 3.5 44.4 39.02 4.38 1 3.09 6.2 11.6 15 1.7e-008 100 1 21.0215 12.25 0 10 0.096248 -0.452022 -2.81799
 2.9 6.38 200 120 1 1.1 4 0.55 3.5 44.4 39.02 4.38 1 3.09 6.2 11.6 15 1.7e-008 100 1 21.0215 12.25 0 10 0.104439 -0.50809 -2.8119
 2.9 6.38 200 120 1 1.1 4 0.55 3.5 44.4 39.02 4.38 1 3.09 6.2 11.6 15 1.7e-008 100 1 21.0215 12.25 0 10 0.112631 -0.527191 -2.79775
 2.9 6.38 200 120 1 1.1 4 0.55 3.5 44.4 39.02 4.38 1 3.09 6.2 11.6 15 1.7e-008 100 1 21.0215 12.25 0 10 0.120822 -0.580358 -2.77922
 2.9 6.38 200 120 1 1.1 4 0.55 3.5 44.4 39.02 4.38 1 3.09 6.2 11.6 15 1.7e-008 100 1 21.0215 12.25 0 10 0.129013 -0.603077 -2.77212
 2.9 6.38 200 120 1 1.1 4 0.55 3.5 44.4 39.02 4.38 1 3.09 6.2 11.6 15 1.7e-008 100 1 21.0215 12.25 0 10 0.137205 -0.648992 -2.74488
 2.9 6.38 200 120 1 1.1 4 0.55 3.5 44.4 39.02 4.38 1 3.09 6.2 11.6 15 1.7e-008 100 1 21.0215 12.25 0 10 0.145396 -0.678193 -2.74058
 2.9 6.38 200 120 1 1.1 4 0.55 3.5 44.4 39.02 4.38 1 3.09 6.2 11.6 15 1.7e-008 100 1 21.0215 12.25 0 10 0.153587 -0.71508 -2.70934
 2.9 6.38 200 120 1 1.1 4 0.55 3.5 44.4 39.02 4.38 1 3.09 6.2 11.6 15 1.7e-008 100 1 21.0215 12.25 0 10 0.161778 -0.751036 -2.70323
 2.9 6.38 200 120 1 1.1 4 0.55 3.5 44.4 39.02 4.38 1 3.09 6.2 11.6 15 1.7e-008 100 1 21.0215 12.25 0 10 0.16997 -0.779602 -2.67241
 2.9 6.38 200 120 1 1.1 4 0.55 3.5 44.4 39.02 4.38 1 3.09 6.2 11.6 15 1.7e-008 100 1 21.0215 12.25 0 10 0.178161 -0.820361 -2.66078
 2.9 6.38 200 120 1 1.1 4 0.55 3.5 44.4 39.02 4.38 1 3.09 6.2 11.6 15 1.7e-008 100 1 21.0215 12.25 0 10 0.186352 -0.843181 -2.63349
 2.9 6.38 200 120 1 1.1 4 0.55 3.5 44.4 39.02 4.38 1 3.09 6.2 11.6 15 1.7e-008 100 1 21.0215 12.25 0 10 0.194544 -0.885396 -2.61432
 2.9 6.38 200 120 1 1.1 4 0.55 3.5 44.4 39.02 4.38 1 3.09 6.2 11.6 15 1.7e-008 100 1 21.0215 12.25 0 10 0.202735 -0.905928 -2.59173
 2.9 6.38 200 120 1 1.1 4 0.55 3.5 44.4 39.02 4.38 1 3.09 6.2 11.6 15 1.7e-008 100 1 21.0215 12.25 0 10 0.210926 -0.945926 -2.56503
 2.9 6.38 200 120 1 1.1 4 0.55 3.5 44.4 39.02 4.38 1 3.09 6.2 11.6 15 1.7e-008 100 1 21.0215 12.25 0 10 0.219118 -0.967427 -2.54635
 2.9 6.38 200 120 1 1.1 4 0.55 3.5 44.4 39.02 4.38 1 3.09 6.2 11.6 15 1.7e-008 100 1 21.0215 12.25 0 10 0.227309 -1.00224 -2.5139
 2.9 6.38 200 120 1 1.1 4 0.55 3.5 44.4 39.02 4.38 1 3.09 6.2 11.6 15 1.7e-008 100 1 21.0215 12.25 0 10 0.2355 -1.02686 -2.49689
 2.9 6.38 200 120 1 1.1 4 0.55 3.5 44.4 39.02 4.38 1 3.09 6.2 11.6 15 1.7e-008 100 1 21.0215 12.25 0 10 0.243692 -1.05497 -2.46158
 2.9 6.38 200 120 1 1.1 4 0.55 3.5 44.4 39.02 4.38 1 3.09 6.2 11.6 15 1.7e-008 100 1 21.0215 12.25 0 10 0.251883 -1.08322 -2.44334
 2.9 6.38 200 120 1 1.1 4 0.55 3.5 44.4 39.02 4.38 1 3.09 6.2 11.6 15 1.7e-008 100 1 21.0215 12.25 0 10 0.260074 -1.10479 -2.40824
 2.9 6.38 200 120 1 1.1 4 0.55 3.5 44.4 39.02 4.38 1 3.09 6.2 11.6 15 1.7e-008 100 1 21.0215 12.25 0 10 0.268266 -1.13558 -2.38615
 2.9 6.38 200 120 1 1.1 4 0.55 3.5 44.4 39.02 4.38 1 3.09 6.2 11.6 15 1.7e-008 100 1 21.0215 12.25 0 10 0.276457 -1.15227 -2.35363
 2.9 6.38 200 120 1 1.1 4 0.55 3.5 44.4 39.02 4.38 1 3.09 6.2 11.6 15 1.7e-008 100 1 21.0215 12.25 0 10 0.284648 -1.1833 -2.32614
 2.9 6.38 200 120 1 1.1 4 0.55 3.5 44.4 39.02 4.38 1 3.09 6.2 11.6 15 1.7e-008 100 1 21.0215 12.25 0 10 0.29284 -1.19758 -2.29727
 2.9 6.38 200 120 1 1.1 4 0.55 3.5 44.4 39.02 4.38 1 3.09 6.2 11.6 15 1.7e-008 100 1 21.0215 12.25 0 10 0.301031 -1.22615 -2.2643
 2.9 6.38 200 120 1 1.1 4 0.55 3.5 44.4 39.02 4.38 1 3.09 6.2 11.6 15 1.7e-008 100 1 21.0215 12.25 0 10 0.309222 -1.24054 -2.23862
 2.9 6.38 200 120 1 1.1 4 0.55 3.5 44.4 39.02 4.38 1 3.09 6.2 11.6 15 1.7e-008 100 1 21.0215 12.25 0 10 0.317413 -1.26434 -2.20151
 2.9 6.38 200 120 1 1.1 4 0.55 3.5 44.4 39.02 4.38 1 3.09 6.2 11.6 15 1.7e-008 100 1 21.0215 12.25 0 10 0.325605 -1.28059 -2.17737
 2.9 6.38 200 120 1 1.1 4 0.55 3.5 44.4 39.02 4.38 1 3.09 6.2 11.6 15 1.7e-008 100 1 21.0215 12.25 0 10 0.333796 -1.29836 -2.13841
 2.9 6.38 200 120 1 1.1 4 0.55 3.5 44.4 39.02 4.38 1 3.09 6.2 11.6 15 1.7e-008 100 1 21.0215 12.25 0 10 0.341987 -1.31697 -2.11352
 2.9 6.38 200 120 1 1.1 4 0.55 3.5 44.4 39.02 4.38 1 3.09 6.2 11.6 15 1.7e-008 100 1 21.0215 12.25 0 10 0.350179 -1.32884 -2.07525
 2.9 6.38 200 120 1 1.1 4 0.55 3.5 44.4 39.02 4.38 1 3.09 6.2 11.6 15 1.7e-008 100 1 21.0215 12.25 0 10 0.35837 -1.34896 -2.04749
 2.9 6.38 200 120 1 1.1 4 0.55 3.5 44.4 39.02 4.38 1 3.09 6.2 11.6 15 1.7e-008 100 1 21.0215 12.25 0 10 0.366561 -1.35632 -2.01193
 2.9 6.38 200 120 1 1.1 4 0.55 3.5 44.4 39.02 4.38 1 3.09 6.2 11.6 15 1.7e-008 100 1 21.0215 12.25 0 10 0.374753 -1.37606 -1.98001
 2.9 6.38 200 120 1 1.1 4 0.55 3.5 44.4 39.02 4.38 1 3.09 6.2 11.6 15 1.7e-008 100 1 21.0215 12.25 0 10 0.382944 -1.38107 -1.94809
 2.9 6.38 200 120 1 1.1 4 0.55 3.5 44.4 39.02 4.38 1 3.09 6.2 11.6 15 1.7e-008 100 1 21.0215 12.25 0 10 0.391135 -1.39811 -1.91195
 2.9 6.38 200 120 1 1.1 4 0.55 3.5 44.4 39.02 4.38 1 3.09 6.2 11.6 15 1.7e-008 100 1 21.0215 12.25 0 10 0.399327 -1.40298 -1.88333
 2.9 6.38 200 120 1 1.1 4 0.55 3.5 44.4 39.02 4.38 1 3.09 6.2 11.6 15 1.7e-008 100 1 21.0215 12.25 0 10 0.407518 -1.41535 -1.84417
 2.9 6.38 200 120 1 1.1 4 0.55 3.5 44.4 39.02 4.38 1 3.09 6.2 11.6 15 1.7e-008 100 1 21.0215 12.25 0 10 0.415709 -1.42166 -1.81736
 2.9 6.38 200 120 1 1.1 4 0.55 3.5 44.4 39.02 4.38 1 3.09 6.2 11.6 15 1.7e-008 100 1 21.0215 12.25 0 10 0.423901 -1.4283 -1.77728
 2.9 6.38 200 120 1 1.1 4 0.55 3.5 44.4 39.02 4.38 1 3.09 6.2 11.6 15 1.7e-008 100 1 21.0215 12.25 0 10 0.432092 -1.43652 -1.75022
 2.9 6.38 200 120 1 1.1 4 0.55 3.5 44.4 39.02 4.38 1 3.09 6.2 11.6 15 1.7e-008 100 1 21.0215 12.25 0 10 0.440283 -1.4376 -1.71153
 2.9 6.38 200 120 1 1.1 4 0.55 3.5 44.4 39.02 4.38 1 3.09 6.2 11.6 15 1.7e-008 100 1 21.0215 12.25 0 10 0.448475 -1.44695 -1.6823
 2.9 6.38 200 120 1 1.1 4 0.55 3.5 44.4 39.02 4.38 1 3.09 6.2 11.6 15 1.7e-008 100 1 21.0215 12.25 0 10 0.456666 -1.44383 -1.64686
 2.9 6.38 200 120 1 1.1 4 0.55 3.5 44.4 39.02 4.38 1 3.09 6.2 11.6 15 1.7e-008 100 1 21.0215 12.25 0 10 0.464857 -1.45258 -1.61428
 2.9 6.38 200 120 1 1.1 4 0.55 3.5 44.4 39.02 4.38 1 3.09 6.2 11.6 15 1.7e-008 100 1 21.0215 12.25 0 10 0.473048 -1.44733 -1.58294
 2.9 6.38 200 120 1 1.1 4 0.55 3.5 44.4 39.02 4.38 1 3.09 6.2 11.6 15 1.7e-008 100 1 21.0215 12.25 0 10 0.48124 -1.45332 -1.547
 2.9 6.38 200 120 1 1.1 4 0.55 3.5 44.4 39.02 4.38 1 3.09 6.2 11.6 15 1.7e-008 100 1 21.0215 12.25 0 10 0.489431 -1.4481 -1.51937
 2.9 6.38 200 120 1 1.1 4 0.55 3.5 44.4 39.02 4.38 1 3.09 6.2 11.6 15 1.7e-008 100 1 21.0215 12.25 0 10 0.497622 -1.44947 -1.48126
 2.9 6.38 200 120 1 1.1 4 0.55 3.5 44.4 39.02 4.38 1 3.09 6.2 11.6 15 1.7e-008 100 1 21.0215 12.25 0 10 0.505814 -1.44582 -1.45587
 2.9 6.38 200 120 1 1.1 4 0.55 3.5 44.4 39.02 4.38 1 3.09 6.2 11.6 15 1.7e-008 100 1 21.0215 12.25 0 10 0.514005 -1.44163 -1.41765
 2.9 6.38 200 120 1 1.1 4 0.55 3.5 44.4 39.02 4.38 1 3.09 6.2 11.6 15 1.7e-008 100 1 21.0215 12.25 0 10 0.522196 -1.44 -1.39246
 2.9 6.38 200 120 1 1.1 4 0.55 3.5 44.4 39.02 4.38 1 3.09 6.2 11.6 15 1.7e-008 100 1 21.0215 12.25 0 10 0.530388 -1.43051 -1.35642
 2.9 6.38 200 120 1 1.1 4 0.55 3.5 44.4 39.02 4.38 1 3.09 6.2 11.6 15 1.7e-008 100 1 21.0215 12.25 0 10 0.538579 -1.43011 -1.3295
 2.9 6.38 200 120 1 1.1 4 0.55 3.5 44.4 39.02 4.38 1 3.09 6.2 11.6 15 1.7e-008 100 1 21.0215 12.25 0 10 0.54677 -1.41677 -1.29744
 2.9 6.38 200 120 1 1.1 4 0.55 3.5 44.4 39.02 4.38 1 3.09 6.2 11.6 15 1.7e-008 100 1 21.0215 12.25 0 10 0.554962 -1.41583 -1.26764
 2.9 6.38 200 120 1 1.1 4 0.55 3.5 44.4 39.02 4.38 1 3.09 6.2 11.6 15 1.7e-008 100 1 21.0215 12.25 0 10 0.563153 -1.40082 -1.24034
 2.9 6.38 200 120 1 1.1 4 0.55 3.5 44.4 39.02 4.38 1 3.09 6.2 11.6 15 1.7e-008 100 1 21.0215 12.25 0 10 0.571344 -1.39717 -1.20769
 2.9 6.38 200 120 1 1.1 4 0.55 3.5 44.4 39.02 4.38 1 3.09 6.2 11.6 15 1.7e-008 100 1 21.0215 12.25 0 10 0.579536 -1.38271 -1.18467
 2.9 6.38 200 120 1 1.1 4 0.55 3.5 44.4 39.02 4.38 1 3.09 6.2 11.6 15 1.7e-008 100 1 21.0215 12.25 0 10 0.587727 -1.37451 -1.15045
 2.9 6.38 200 120 1 1.1 4 0.55 3.5 44.4 39.02 4.38 1 3.09 6.2 11.6 15 1.7e-008 100 1 21.0215 12.25 0 10 0.595918 -1.36218 -1.1301
 2.9 6.38 200 120 1 1.1 4 0.55 3.5 44.4 39.02 4.38 1 3.09 6.2 11.6 15 1.7e-008 100 1 21.0215 12.25 0 10 0.60411 -1.34853 -1.09646
 2.9 6.38 200 120 1 1.1 4 0.55 3.5 44.4 39.02 4.38 1 3.09 6.2 11.6 15 1.7e-008 100 1 21.0215 12.25 0 10 0.612301 -1.33876 -1.07659
 2.9 6.38 200 120 1 1.1 4 0.55 3.5 44.4 39.02 4.38 1 3.09 6.2 11.6 15 1.7e-008 100 1 21.0215 12.25 0 10 0.620492 -1.32004 -1.0459
 2.9 6.38 200 120 1 1.1 4 0.55 3.5 44.4 39.02 4.38 1 3.09 6.2 11.6 15 1.7e-008 100 1 21.0215 12.25 0 10 0.628683 -1.31196 -1.02445
 2.9 6.38 200 120 1 1.1 4 0.55 3.5 44.4 39.02 4.38 1 3.09 6.2 11.6 15 1.7e-008 100 1 21.0215 12.25 0 10 0.636875 -1.2898 -0.998581
 2.9 6.38 200 120 1 1.1 4 0.55 3.5 44.4 39.02 4.38 1 3.09 6.2 11.6 15 1.7e-008 100 1 21.0215 12.25 0 10 0.645066 -1.28148 -0.974337
 2.9 6.38 200 120 1 1.1 4 0.55 3.5 44.4 39.02 4.38 1 3.09 6.2 11.6 15 1.7e-008 100 1 21.0215 12.25 0 10 0.653257 -1.25828 -0.954017
 2.9 6.38 200 120 1 1.1 4 0.55 3.5 44.4 39.02 4.38 1 3.09 6.2 11.6 15 1.7e-008 100 1 21.0215 12.25 0 10 0.661449 -1.24737 -0.927065
 2.9 6.38 200 120 1 1.1 4 0.55 3.5 44.4 39.02 4.38 1 3.09 6.2 11.6 15 1.7e-008 100 1 21.0215 12.25 0 10 0.66964 -1.22557 -0.911635
 2.9 6.38 200 120 1 1.1 4 0.55 3.5 44.4 39.02 4.38 1 3.09 6.2 11.6 15 1.7e-008 100 1 21.0215 12.25 0 10 0.677831 -1.2101 -0.883412
 2.9 6.38 200 120 1 1.1 4 0.55 3.5 44.4 39.02 4.38 1 3.09 6.2 11.6 15 1.7e-008 100 1 21.0215 12.25 0 10 0.686023 -1.19141 -0.870995
 2.9 6.38 200 120 1 1.1 4 0.55 3.5 44.4 39.02 4.38 1 3.09 6.2 11.6 15 1.7e-008 100 1 21.0215 12.25 0 10 0.694214 -1.17047 -0.84389
 2.9 6.38 200 120 1 1.1 4 0.55 3.5 44.4 39.02 4.38 1 3.09 6.2 11.6 15 1.7e-008 100 1 21.0215 12.25 0 10 0.702405 -1.15528 -0.831976
 2.9 6.38 200 120 1 1.1 4 0.55 3.5 44.4 39.02 4.38 1 3.09 6.2 11.6 15 1.7e-008 100 1 21.0215 12.25 0 10 0.710597 -1.12941 -0.808608
 2.9 6.38 200 120 1 1.1 4 0.55 3.5 44.4 39.02 4.38 1 3.09 6.2 11.6 15 1.7e-008 100 1 21.0215 12.25 0 10 0.718788 -1.11664 -0.79487
 2.9 6.38 200 120 1 1.1 4 0.55 3.5 44.4 39.02 4.38 1 3.09 6.2 11.6 15 1.7e-008 100 1 21.0215 12.25 0 10 0.726979 -1.08778 -0.777239
 2.9 6.38 200 120 1 1.1 4 0.55 3.5 44.4 39.02 4.38 1 3.09 6.2 11.6 15 1.7e-008 100 1 21.0215 12.25 0 10 0.735171 -1.07519 -0.760334
 2.9 6.38 200 120 1 1.1 4 0.55 3.5 44.4 39.02 4.38 1 3.09 6.2 11.6 15 1.7e-008 100 1 21.0215 12.25 0 10 0.743362 -1.04611 -0.749135
 2.9 6.38 200 120 1 1.1 4 0.55 3.5 44.4 39.02 4.38 1 3.09 6.2 11.6 15 1.7e-008 100 1 21.0215 12.25 0 10 0.751553 -1.031 -0.729225
 2.9 6.38 200 120 1 1.1 4 0.55 3.5 44.4 39.02 4.38 1 3.09 6.2 11.6 15 1.7e-008 100 1 21.0215 12.25 0 10 0.759745 -1.0045 -0.723542
 2.9 6.38 200 120 1 1.1 4 0.55 3.5 44.4 39.02 4.38 1 3.09 6.2 11.6 15 1.7e-008 100 1 21.0215 12.25 0 10 0.767936 -0.984629 -0.702343
 2.9 6.38 200 120 1 1.1 4 0.55 3.5 44.4 39.02 4.38 1 3.09 6.2 11.6 15 1.7e-008 100 1 21.0215 12.25 0 10 0.776127 -0.9626 -0.699864
 2.9 6.38 200 120 1 1.1 4 0.55 3.5 44.4 39.02 4.38 1 3.09 6.2 11.6 15 1.7e-008 100 1 21.0215 12.25 0 10 0.784318 -0.937 -0.680183
 2.9 6.38 200 120 1 1.1 4 0.55 3.5 44.4 39.02 4.38 1 3.09 6.2 11.6 15 1.7e-008 100 1 21.0215 12.25 0 10 0.79251 -0.919783 -0.677887
 2.9 6.38 200 120 1 1.1 4 0.55 3.5 44.4 39.02 4.38 1 3.09 6.2 11.6 15 1.7e-008 100 1 21.0215 12.25 0 10 0.800701 -0.889209 -0.662759
 2.9 6.38 200 120 1 1.1 4 0.55 3.5 44.4 39.02 4.38 1 3.09 6.2 11.6 15 1.7e-008 100 1 21.0215 12.25 0 10 0.808892 -0.875393 -0.657887
 2.9 6.38 200 120 1 1.1 4 0.55 3.5 44.4 39.02 4.38 1 3.09 6.2 11.6 15 1.7e-008 100 1 21.0215 12.25 0 10 0.817084 -0.842232 -0.649571
 2.9 6.38 200 120 1 1.1 4 0.55 3.5 44.4 39.02 4.38 1 3.09 6.2 11.6 15 1.7e-008 100 1 21.0215 12.25 0 10 0.825275 -0.829033 -0.640578
 2.9 6.38 200 120 1 1.1 4 0.55 3.5 44.4 39.02 4.38 1 3.09 6.2 11.6 15 1.7e-008 100 1 21.0215 12.25 0 10 0.833466 -0.796655 -0.639736
 2.9 6.38 200 120 1 1.1 4 0.55 3.5 44.4 39.02 4.38 1 3.09 6.2 11.6 15 1.7e-008 100 1 21.0215 12.25 0 10 0.841658 -0.780789 -0.626913
 2.9 6.38 200 120 1 1.1 4 0.55 3.5 44.4 39.02 4.38 1 3.09 6.2 11.6 15 1.7e-008 100 1 21.0215 12.25 0 10 0.849849 -0.752521 -0.632253
 2.9 6.38 200 120 1 1.1 4 0.55 3.5 44.4 39.02 4.38 1 3.09 6.2 11.6 15 1.7e-008 100 1 21.0215 12.25 0 10 0.85804 -0.731304 -0.617776
 2.9 6.38 200 120 1 1.1 4 0.55 3.5 44.4 39.02 4.38 1 3.09 6.2 11.6 15 1.7e-008 100 1 21.0215 12.25 0 10 0.866232 -0.709332 -0.626325
 2.9 6.38 200 120 1 1.1 4 0.55 3.5 44.4 39.02 4.38 1 3.09 6.2 11.6 15 1.7e-008 100 1 21.0215 12.25 0 10 0.874423 -0.681685 -0.613669
 2.9 6.38 200 120 1 1.1 4 0.55 3.5 44.4 39.02 4.38 1 3.09 6.2 11.6 15 1.7e-008 100 1 21.0215 12.25 0 10 0.882614 -0.666239 -0.621632
 2.9 6.38 200 120 1 1.1 4 0.55 3.5 44.4 39.02 4.38 1 3.09 6.2 11.6 15 1.7e-008 100 1 21.0215 12.25 0 10 0.890806 -0.633226 -0.614504
 2.9 6.38 200 120 1 1.1 4 0.55 3.5 44.4 39.02 4.38 1 3.09 6.2 11.6 15 1.7e-008 100 1 21.0215 12.25 0 10 0.898997 -0.622363 -0.618471
 2.9 6.38 200 120 1 1.1 4 0.55 3.5 44.4 39.02 4.38 1 3.09 6.2 11.6 15 1.7e-008 100 1 21.0215 12.25 0 10 0.907188 -0.587064 -0.619551
 2.9 6.38 200 120 1 1.1 4 0.55 3.5 44.4 39.02 4.38 1 3.09 6.2 11.6 15 1.7e-008 100 1 21.0215 12.25 0 10 0.915379 -0.577154 -0.617694
 2.9 6.38 200 120 1 1.1 4 0.55 3.5 44.4 39.02 4.38 1 3.09 6.2 11.6 15 1.7e-008 100 1 21.0215 12.25 0 10 0.923571 -0.543834 -0.627612
 2.9 6.38 200 120 1 1.1 4 0.55 3.5 44.4 39.02 4.38 1 3.09 6.2 11.6 15 1.7e-008 100 1 21.0215 12.25 0 10 0.931762 -0.530672 -0.620451
 2.9 6.38 200 120 1 1.1 4 0.55 3.5 44.4 39.02 4.38 1 3.09 6.2 11.6 15 1.7e-008 100 1 21.0215 12.25 0 10 0.939953 -0.503468 -0.637349
 2.9 6.38 200 120 1 1.1 4 0.55 3.5 44.4 39.02 4.38 1 3.09 6.2 11.6 15 1.7e-008 100 1 21.0215 12.25 0 10 0.948145 -0.483691 -0.627798
 2.9 6.38 200 120 1 1.1 4 0.55 3.5 44.4 39.02 4.38 1 3.09 6.2 11.6 15 1.7e-008 100 1 21.0215 12.25 0 10 0.956336 -0.465207 -0.647705
 2.9 6.38 200 120 1 1.1 4 0.55 3.5 44.4 39.02 4.38 1 3.09 6.2 11.6 15 1.7e-008 100 1 21.0215 12.25 0 10 0.964527 -0.437563 -0.640302
 2.9 6.38 200 120 1 1.1 4 0.55 3.5 44.4 39.02 4.38 1 3.09 6.2 11.6 15 1.7e-008 100 1 21.0215 12.25 0 10 0.972719 -0.427841 -0.658254
 2.9 6.38 200 120 1 1.1 4 0.55 3.5 44.4 39.02 4.38 1 3.09 6.2 11.6 15 1.7e-008 100 1 21.0215 12.25 0 10 0.98091 -0.393882 -0.657757
 2.9 6.38 200 120 1 1.1 4 0.55 3.5 44.4 39.02 4.38 1 3.09 6.2 11.6 15 1.7e-008 100 1 21.0215 12.25 0 10 0.989101 -0.390133 -0.669386
 2.9 6.38 200 120 1 1.1 4 0.55 3.5 44.4 39.02 4.38 1 3.09 6.2 11.6 15 1.7e-008 100 1 21.0215 12.25 0 10 0.997293 -0.35401 -0.679129
 2.9 6.38 200 120 1 1.1 4 0.55 3.5 44.4 39.02 4.38 1 3.09 6.2 11.6 15 1.7e-008 100 1 21.0215 12.25 0 10 1.00548 -0.351284 -0.682219
 2.9 6.38 200 120 1 1.1 4 0.55 3.5 44.4 39.02 4.38 1 3.09 6.2 11.6 15 1.7e-008 100 1 21.0215 12.25 0 10 1.01368 -0.318641 -0.70278
 2.9 6.38 200 120 1 1.1 4 0.55 3.5 44.4 39.02 4.38 1 3.09 6.2 11.6 15 1.7e-008 100 1 21.0215 12.25 0 10 1.02187 -0.311317 -0.698261
 2.9 6.38 200 120 1 1.1 4 0.55 3.5 44.4 39.02 4.38 1 3.09 6.2 11.6 15 1.7e-008 100 1 21.0215 12.25 0 10 1.02391 -0.299047 -0.700443