File: LHC_elements/from_Benoit_BPMs/BPMstripline_80mm_scaled.dat
 sc Dstrippipe Lconnect Lpipe Lstrip M Rbeam Rbpm Rconn Riso1 Rpipe Rstrip Strip WStrip Xcurved Xstraight alfa angle beam_charge beam_sigma modes tap transStrip xbeam ybeam  Freq[GHz] Imp_Real[Ohm] Imp_Imag[Ohm]
 1.33 2.9 6.38 200 120 1 1.1 4 0.55 3.5 34.4 29.02 4.38 1 3.09 6.2 11.6 15 1.7e-008 50 1 21.0215 12.25 0 10 0 0 -1.89824
 1.33 2.9 6.38 200 120 1 1.1 4 0.55 3.5 34.4 29.02 4.38 1 3.09 6.2 11.6 15 1.7e-008 50 1 21.0215 12.25 0 10 0.0184305 -0.012675 -1.84865
 1.33 2.9 6.38 200 120 1 1.1 4 0.55 3.5 34.4 29.02 4.38 1 3.09 6.2 11.6 15 1.7e-008 50 1 21.0215 12.25 0 10 0.0368609 -0.0049086 -1.826
 1.33 2.9 6.38 200 120 1 1.1 4 0.55 3.5 34.4 29.02 4.38 1 3.09 6.2 11.6 15 1.7e-008 50 1 21.0215 12.25 0 10 0.0552914 0.0133552 -1.83611
 1.33 2.9 6.38 200 120 1 1.1 4 0.55 3.5 34.4 29.02 4.38 1 3.09 6.2 11.6 15 1.7e-008 50 1 21.0215 12.25 0 10 0.0737218 0.00248601 -1.85377
 1.33 2.9 6.38 200 120 1 1.1 4 0.55 3.5 34.4 29.02 4.38 1 3.09 6.2 11.6 15 1.7e-008 50 1 21.0215 12.25 0 10 0.0921523 -0.014276 -1.84237
 1.33 2.9 6.38 200 120 1 1.1 4 0.55 3.5 34.4 29.02 4.38 1 3.09 6.2 11.6 15 1.7e-008 50 1 21.0215 12.25 0 10 0.110583 -0.000356964 -1.82564
 1.33 2.9 6.38 200 120 1 1.1 4 0.55 3.5 34.4 29.02 4.38 1 3.09 6.2 11.6 15 1.7e-008 50 1 21.0215 12.25 0 10 0.129013 0.0197753 -1.84186
 1.33 2.9 6.38 200 120 1 1.1 4 0.55 3.5 34.4 29.02 4.38 1 3.09 6.2 11.6 15 1.7e-008 50 1 21.0215 12.25 0 10 0.147444 0.00483554 -1.86608
 1.33 2.9 6.38 200 120 1 1.1 4 0.55 3.5 34.4 29.02 4.38 1 3.09 6.2 11.6 15 1.7e-008 50 1 21.0215 12.25 0 10 0.165874 -0.0202596 -1.85303
 1.33 2.9 6.38 200 120 1 1.1 4 0.55 3.5 34.4 29.02 4.38 1 3.09 6.2 11.6 15 1.7e-008 50 1 21.0215 12.25 0 10 0.184305 -0.00541556 -1.82679
 1.33 2.9 6.38 200 120 1 1.1 4 0.55 3.5 34.4 29.02 4.38 1 3.09 6.2 11.6 15 1.7e-008 50 1 21.0215 12.25 0 10 0.202735 0.0270352 -1.84294
 1.33 2.9 6.38 200 120 1 1.1 4 0.55 3.5 34.4 29.02 4.38 1 3.09 6.2 11.6 15 1.7e-008 50 1 21.0215 12.25 0 10 0.221166 0.0155786 -1.88199
 1.33 2.9 6.38 200 120 1 1.1 4 0.55 3.5 34.4 29.02 4.38 1 3.09 6.2 11.6 15 1.7e-008 50 1 21.0215 12.25 0 10 0.239596 -0.0243271 -1.87619
 1.33 2.9 6.38 200 120 1 1.1 4 0.55 3.5 34.4 29.02 4.38 1 3.09 6.2 11.6 15 1.7e-008 50 1 21.0215 12.25 0 10 0.258026 -0.0186144 -1.83564
 1.33 2.9 6.38 200 120 1 1.1 4 0.55 3.5 34.4 29.02 4.38 1 3.09 6.2 11.6 15 1.7e-008 50 1 21.0215 12.25 0 10 0.276457 0.0294067 -1.8406
 1.33 2.9 6.38 200 120 1 1.1 4 0.55 3.5 34.4 29.02 4.38 1 3.09 6.2 11.6 15 1.7e-008 50 1 21.0215 12.25 0 10 0.294887 0.0337024 -1.89601
 1.33 2.9 6.38 200 120 1 1.1 4 0.55 3.5 34.4 29.02 4.38 1 3.09 6.2 11.6 15 1.7e-008 50 1 21.0215 12.25 0 10 0.313318 -0.0204277 -1.9107
 1.33 2.9 6.38 200 120 1 1.1 4 0.55 3.5 34.4 29.02 4.38 1 3.09 6.2 11.6 15 1.7e-008 50 1 21.0215 12.25 0 10 0.331748 -0.0375345 -1.85876
 1.33 2.9 6.38 200 120 1 1.1 4 0.55 3.5 34.4 29.02 4.38 1 3.09 6.2 11.6 15 1.7e-008 50 1 21.0215 12.25 0 10 0.350179 0.02096 -1.83869
 1.33 2.9 6.38 200 120 1 1.1 4 0.55 3.5 34.4 29.02 4.38 1 3.09 6.2 11.6 15 1.7e-008 50 1 21.0215 12.25 0 10 0.368609 0.0549993 -1.9031
 1.33 2.9 6.38 200 120 1 1.1 4 0.55 3.5 34.4 29.02 4.38 1 3.09 6.2 11.6 15 1.7e-008 50 1 21.0215 12.25 0 10 0.38704 -0.00322902 -1.95213
 1.33 2.9 6.38 200 120 1 1.1 4 0.55 3.5 34.4 29.02 4.38 1 3.09 6.2 11.6 15 1.7e-008 50 1 21.0215 12.25 0 10 0.40547 -0.0560953 -1.90175
 1.33 2.9 6.38 200 120 1 1.1 4 0.55 3.5 34.4 29.02 4.38 1 3.09 6.2 11.6 15 1.7e-008 50 1 21.0215 12.25 0 10 0.423901 -0.00248371 -1.84506
 1.33 2.9 6.38 200 120 1 1.1 4 0.55 3.5 34.4 29.02 4.38 1 3.09 6.2 11.6 15 1.7e-008 50 1 21.0215 12.25 0 10 0.442331 0.0716605 -1.90079
 1.33 2.9 6.38 200 120 1 1.1 4 0.55 3.5 34.4 29.02 4.38 1 3.09 6.2 11.6 15 1.7e-008 50 1 21.0215 12.25 0 10 0.460761 0.0298205 -1.99294
 1.33 2.9 6.38 200 120 1 1.1 4 0.55 3.5 34.4 29.02 4.38 1 3.09 6.2 11.6 15 1.7e-008 50 1 21.0215 12.25 0 10 0.479192 -0.0649303 -1.96737
 1.33 2.9 6.38 200 120 1 1.1 4 0.55 3.5 34.4 29.02 4.38 1 3.09 6.2 11.6 15 1.7e-008 50 1 21.0215 12.25 0 10 0.497622 -0.0413077 -1.87107
 1.33 2.9 6.38 200 120 1 1.1 4 0.55 3.5 34.4 29.02 4.38 1 3.09 6.2 11.6 15 1.7e-008 50 1 21.0215 12.25 0 10 0.516053 0.0731617 -1.89146
 1.33 2.9 6.38 200 120 1 1.1 4 0.55 3.5 34.4 29.02 4.38 1 3.09 6.2 11.6 15 1.7e-008 50 1 21.0215 12.25 0 10 0.534483 0.0765214 -2.02387
 1.33 2.9 6.38 200 120 1 1.1 4 0.55 3.5 34.4 29.02 4.38 1 3.09 6.2 11.6 15 1.7e-008 50 1 21.0215 12.25 0 10 0.552914 -0.0527546 -2.05384
 1.33 2.9 6.38 200 120 1 1.1 4 0.55 3.5 34.4 29.02 4.38 1 3.09 6.2 11.6 15 1.7e-008 50 1 21.0215 12.25 0 10 0.571344 -0.0902618 -1.93031
 1.33 2.9 6.38 200 120 1 1.1 4 0.55 3.5 34.4 29.02 4.38 1 3.09 6.2 11.6 15 1.7e-008 50 1 21.0215 12.25 0 10 0.589775 0.0480575 -1.88441
 1.33 2.9 6.38 200 120 1 1.1 4 0.55 3.5 34.4 29.02 4.38 1 3.09 6.2 11.6 15 1.7e-008 50 1 21.0215 12.25 0 10 0.608205 0.12831 -2.0363
 1.33 2.9 6.38 200 120 1 1.1 4 0.55 3.5 34.4 29.02 4.38 1 3.09 6.2 11.6 15 1.7e-008 50 1 21.0215 12.25 0 10 0.626636 -0.00848367 -2.15391
 1.33 2.9 6.38 200 120 1 1.1 4 0.55 3.5 34.4 29.02 4.38 1 3.09 6.2 11.6 15 1.7e-008 50 1 21.0215 12.25 0 10 0.645066 -0.137095 -2.03693
 1.33 2.9 6.38 200 120 1 1.1 4 0.55 3.5 34.4 29.02 4.38 1 3.09 6.2 11.6 15 1.7e-008 50 1 21.0215 12.25 0 10 0.663497 -0.0136343 -1.89783
 1.33 2.9 6.38 200 120 1 1.1 4 0.55 3.5 34.4 29.02 4.38 1 3.09 6.2 11.6 15 1.7e-008 50 1 21.0215 12.25 0 10 0.681927 0.169084 -2.02569
 1.33 2.9 6.38 200 120 1 1.1 4 0.55 3.5 34.4 29.02 4.38 1 3.09 6.2 11.6 15 1.7e-008 50 1 21.0215 12.25 0 10 0.700357 0.0762044 -2.25476
 1.33 2.9 6.38 200 120 1 1.1 4 0.55 3.5 34.4 29.02 4.38 1 3.09 6.2 11.6 15 1.7e-008 50 1 21.0215 12.25 0 10 0.718788 -0.161441 -2.20437
 1.33 2.9 6.38 200 120 1 1.1 4 0.55 3.5 34.4 29.02 4.38 1 3.09 6.2 11.6 15 1.7e-008 50 1 21.0215 12.25 0 10 0.737218 -0.117772 -1.96162
 1.33 2.9 6.38 200 120 1 1.1 4 0.55 3.5 34.4 29.02 4.38 1 3.09 6.2 11.6 15 1.7e-008 50 1 21.0215 12.25 0 10 0.755649 0.173966 -1.99616
 1.33 2.9 6.38 200 120 1 1.1 4 0.55 3.5 34.4 29.02 4.38 1 3.09 6.2 11.6 15 1.7e-008 50 1 21.0215 12.25 0 10 0.774079 0.204272 -2.33916
 1.33 2.9 6.38 200 120 1 1.1 4 0.55 3.5 34.4 29.02 4.38 1 3.09 6.2 11.6 15 1.7e-008 50 1 21.0215 12.25 0 10 0.79251 -0.132933 -2.44606
 1.33 2.9 6.38 200 120 1 1.1 4 0.55 3.5 34.4 29.02 4.38 1 3.09 6.2 11.6 15 1.7e-008 50 1 21.0215 12.25 0 10 0.81094 -0.263601 -2.124
 1.33 2.9 6.38 200 120 1 1.1 4 0.55 3.5 34.4 29.02 4.38 1 3.09 6.2 11.6 15 1.7e-008 50 1 21.0215 12.25 0 10 0.829371 0.105875 -1.96835
 1.33 2.9 6.38 200 120 1 1.1 4 0.55 3.5 34.4 29.02 4.38 1 3.09 6.2 11.6 15 1.7e-008 50 1 21.0215 12.25 0 10 0.847801 0.37113 -2.38757
 1.33 2.9 6.38 200 120 1 1.1 4 0.55 3.5 34.4 29.02 4.38 1 3.09 6.2 11.6 15 1.7e-008 50 1 21.0215 12.25 0 10 0.866232 -0.00414457 -2.78268
 1.33 2.9 6.38 200 120 1 1.1 4 0.55 3.5 34.4 29.02 4.38 1 3.09 6.2 11.6 15 1.7e-008 50 1 21.0215 12.25 0 10 0.884662 -0.441727 -2.47439
 1.33 2.9 6.38 200 120 1 1.1 4 0.55 3.5 34.4 29.02 4.38 1 3.09 6.2 11.6 15 1.7e-008 50 1 21.0215 12.25 0 10 0.903093 -0.0990889 -1.99866
 1.33 2.9 6.38 200 120 1 1.1 4 0.55 3.5 34.4 29.02 4.38 1 3.09 6.2 11.6 15 1.7e-008 50 1 21.0215 12.25 0 10 0.921523 0.563149 -2.38118
 1.33 2.9 6.38 200 120 1 1.1 4 0.55 3.5 34.4 29.02 4.38 1 3.09 6.2 11.6 15 1.7e-008 50 1 21.0215 12.25 0 10 0.939953 0.322184 -3.27638
 1.33 2.9 6.38 200 120 1 1.1 4 0.55 3.5 34.4 29.02 4.38 1 3.09 6.2 11.6 15 1.7e-008 50 1 21.0215 12.25 0 10 0.958384 -0.632278 -3.24617
 1.33 2.9 6.38 200 120 1 1.1 4 0.55 3.5 34.4 29.02 4.38 1 3.09 6.2 11.6 15 1.7e-008 50 1 21.0215 12.25 0 10 0.976814 -0.609525 -2.26252
 1.33 2.9 6.38 200 120 1 1.1 4 0.55 3.5 34.4 29.02 4.38 1 3.09 6.2 11.6 15 1.7e-008 50 1 21.0215 12.25 0 10 0.995245 0.756117 -2.3048
 1.33 2.9 6.38 200 120 1 1.1 4 0.55 3.5 34.4 29.02 4.38 1 3.09 6.2 11.6 15 1.7e-008 50 1 21.0215 12.25 0 10 1.01368 1.21408 -4.24894
 1.33 2.9 6.38 200 120 1 1.1 4 0.55 3.5 34.4 29.02 4.38 1 3.09 6.2 11.6 15 1.7e-008 50 1 21.0215 12.25 0 10 1.03211 -0.795211 -5.6286
 1.33 2.9 6.38 200 120 1 1.1 4 0.55 3.5 34.4 29.02 4.38 1 3.09 6.2 11.6 15 1.7e-008 50 1 21.0215 12.25 0 10 1.05054 -2.52899 -3.90522
 1.33 2.9 6.38 200 120 1 1.1 4 0.55 3.5 34.4 29.02 4.38 1 3.09 6.2 11.6 15 1.7e-008 50 1 21.0215 12.25 0 10 1.06897 0.882754 -2.14155
 1.33 2.9 6.38 200 120 1 1.1 4 0.55 3.5 34.4 29.02 4.38 1 3.09 6.2 11.6 15 1.7e-008 50 1 21.0215 12.25 0 10 1.0874 12.4988 -15.1702
 1.33 2.9 6.38 200 120 1 1.1 4 0.55 3.5 34.4 29.02 4.38 1 3.09 6.2 11.6 15 1.7e-008 50 1 21.0215 12.25 0 10 1.10583 -1.87036 37.2608
 1.33 2.9 6.38 200 120 1 1.1 4 0.55 3.5 34.4 29.02 4.38 1 3.09 6.2 11.6 15 1.7e-008 50 1 21.0215 12.25 0 10 1.12426 5.50792 4.25236
 1.33 2.9 6.38 200 120 1 1.1 4 0.55 3.5 34.4 29.02 4.38 1 3.09 6.2 11.6 15 1.7e-008 50 1 21.0215 12.25 0 10 1.14269 1.05537 -2.01838
 1.33 2.9 6.38 200 120 1 1.1 4 0.55 3.5 34.4 29.02 4.38 1 3.09 6.2 11.6 15 1.7e-008 50 1 21.0215 12.25 0 10 1.16112 -2.2505 -0.774054
 1.33 2.9 6.38 200 120 1 1.1 4 0.55 3.5 34.4 29.02 4.38 1 3.09 6.2 11.6 15 1.7e-008 50 1 21.0215 12.25 0 10 1.17955 -1.09728 1.47404
 1.33 2.9 6.38 200 120 1 1.1 4 0.55 3.5 34.4 29.02 4.38 1 3.09 6.2 11.6 15 1.7e-008 50 1 21.0215 12.25 0 10 1.19798 1.27703 0.583652
 1.33 2.9 6.38 200 120 1 1.1 4 0.55 3.5 34.4 29.02 4.38 1 3.09 6.2 11.6 15 1.7e-008 50 1 21.0215 12.25 0 10 1.21641 1.10516 -1.72309
 1.33 2.9 6.38 200 120 1 1.1 4 0.55 3.5 34.4 29.02 4.38 1 3.09 6.2 11.6 15 1.7e-008 50 1 21.0215 12.25 0 10 1.23484 -0.7326 -2.00634
 1.33 2.9 6.38 200 120 1 1.1 4 0.55 3.5 34.4 29.02 4.38 1 3.09 6.2 11.6 15 1.7e-008 50 1 21.0215 12.25 0 10 1.25327 -1.06819 -0.508916
 1.33 2.9 6.38 200 120 1 1.1 4 0.55 3.5 34.4 29.02 4.38 1 3.09 6.2 11.6 15 1.7e-008 50 1 21.0215 12.25 0 10 1.2717 0.37166 -0.10148
 1.33 2.9 6.38 200 120 1 1.1 4 0.55 3.5 34.4 29.02 4.38 1 3.09 6.2 11.6 15 1.7e-008 50 1 21.0215 12.25 0 10 1.29013 1.03065 -1.45139
 1.33 2.9 6.38 200 120 1 1.1 4 0.55 3.5 34.4 29.02 4.38 1 3.09 6.2 11.6 15 1.7e-008 50 1 21.0215 12.25 0 10 1.30856 -0.0596078 -2.30291
 1.33 2.9 6.38 200 120 1 1.1 4 0.55 3.5 34.4 29.02 4.38 1 3.09 6.2 11.6 15 1.7e-008 50 1 21.0215 12.25 0 10 1.32699 -0.929124 -1.44296
 1.33 2.9 6.38 200 120 1 1.1 4 0.55 3.5 34.4 29.02 4.38 1 3.09 6.2 11.6 15 1.7e-008 50 1 21.0215 12.25 0 10 1.34542 -0.163088 -0.557267
 1.33 2.9 6.38 200 120 1 1.1 4 0.55 3.5 34.4 29.02 4.38 1 3.09 6.2 11.6 15 1.7e-008 50 1 21.0215 12.25 0 10 1.36385 0.838229 -1.21823
 1.33 2.9 6.38 200 120 1 1.1 4 0.55 3.5 34.4 29.02 4.38 1 3.09 6.2 11.6 15 1.7e-008 50 1 21.0215 12.25 0 10 1.38228 0.386113 -2.30671
 1.33 2.9 6.38 200 120 1 1.1 4 0.55 3.5 34.4 29.02 4.38 1 3.09 6.2 11.6 15 1.7e-008 50 1 21.0215 12.25 0 10 1.40071 -0.675284 -2.05169
 1.33 2.9 6.38 200 120 1 1.1 4 0.55 3.5 34.4 29.02 4.38 1 3.09 6.2 11.6 15 1.7e-008 50 1 21.0215 12.25 0 10 1.41915 -0.523292 -1.0262
 1.33 2.9 6.38 200 120 1 1.1 4 0.55 3.5 34.4 29.02 4.38 1 3.09 6.2 11.6 15 1.7e-008 50 1 21.0215 12.25 0 10 1.43758 0.536252 -1.07326
 1.33 2.9 6.38 200 120 1 1.1 4 0.55 3.5 34.4 29.02 4.38 1 3.09 6.2 11.6 15 1.7e-008 50 1 21.0215 12.25 0 10 1.45601 0.670823 -2.14711
 1.33 2.9 6.38 200 120 1 1.1 4 0.55 3.5 34.4 29.02 4.38 1 3.09 6.2 11.6 15 1.7e-008 50 1 21.0215 12.25 0 10 1.47444 -0.324383 -2.45407
 1.33 2.9 6.38 200 120 1 1.1 4 0.55 3.5 34.4 29.02 4.38 1 3.09 6.2 11.6 15 1.7e-008 50 1 21.0215 12.25 0 10 1.49287 -0.721194 -1.54889
 1.33 2.9 6.38 200 120 1 1.1 4 0.55 3.5 34.4 29.02 4.38 1 3.09 6.2 11.6 15 1.7e-008 50 1 21.0215 12.25 0 10 1.5113 0.154557 -1.06774
 1.33 2.9 6.38 200 120 1 1.1 4 0.55 3.5 34.4 29.02 4.38 1 3.09 6.2 11.6 15 1.7e-008 50 1 21.0215 12.25 0 10 1.52973 0.784637 -1.89929
 1.33 2.9 6.38 200 120 1 1.1 4 0.55 3.5 34.4 29.02 4.38 1 3.09 6.2 11.6 15 1.7e-008 50 1 21.0215 12.25 0 10 1.54816 0.0829098 -2.66715
 1.33 2.9 6.38 200 120 1 1.1 4 0.55 3.5 34.4 29.02 4.38 1 3.09 6.2 11.6 15 1.7e-008 50 1 21.0215 12.25 0 10 1.56659 -0.737996 -2.10639
 1.33 2.9 6.38 200 120 1 1.1 4 0.55 3.5 34.4 29.02 4.38 1 3.09 6.2 11.6 15 1.7e-008 50 1 21.0215 12.25 0 10 1.58502 -0.254748 -1.245
 1.33 2.9 6.38 200 120 1 1.1 4 0.55 3.5 34.4 29.02 4.38 1 3.09 6.2 11.6 15 1.7e-008 50 1 21.0215 12.25 0 10 1.60345 0.708767 -1.64163
 1.33 2.9 6.38 200 120 1 1.1 4 0.55 3.5 34.4 29.02 4.38 1 3.09 6.2 11.6 15 1.7e-008 50 1 21.0215 12.25 0 10 1.62188 0.484423 -2.69332
 1.33 2.9 6.38 200 120 1 1.1 4 0.55 3.5 34.4 29.02 4.38 1 3.09 6.2 11.6 15 1.7e-008 50 1 21.0215 12.25 0 10 1.64031 -0.55966 -2.64984
 1.33 2.9 6.38 200 120 1 1.1 4 0.55 3.5 34.4 29.02 4.38 1 3.09 6.2 11.6 15 1.7e-008 50 1 21.0215 12.25 0 10 1.65874 -0.619862 -1.63275
 1.33 2.9 6.38 200 120 1 1.1 4 0.55 3.5 34.4 29.02 4.38 1 3.09 6.2 11.6 15 1.7e-008 50 1 21.0215 12.25 0 10 1.67717 0.438396 -1.46791
 1.33 2.9 6.38 200 120 1 1.1 4 0.55 3.5 34.4 29.02 4.38 1 3.09 6.2 11.6 15 1.7e-008 50 1 21.0215 12.25 0 10 1.6956 0.800622 -2.55183
 1.33 2.9 6.38 200 120 1 1.1 4 0.55 3.5 34.4 29.02 4.38 1 3.09 6.2 11.6 15 1.7e-008 50 1 21.0215 12.25 0 10 1.71403 -0.19292 -3.11592
 1.33 2.9 6.38 200 120 1 1.1 4 0.55 3.5 34.4 29.02 4.38 1 3.09 6.2 11.6 15 1.7e-008 50 1 21.0215 12.25 0 10 1.73246 -0.854213 -2.23899
 1.33 2.9 6.38 200 120 1 1.1 4 0.55 3.5 34.4 29.02 4.38 1 3.09 6.2 11.6 15 1.7e-008 50 1 21.0215 12.25 0 10 1.75089 -0.00513451 -1.49192
 1.33 2.9 6.38 200 120 1 1.1 4 0.55 3.5 34.4 29.02 4.38 1 3.09 6.2 11.6 15 1.7e-008 50 1 21.0215 12.25 0 10 1.76932 0.939759 -2.29985
 1.33 2.9 6.38 200 120 1 1.1 4 0.55 3.5 34.4 29.02 4.38 1 3.09 6.2 11.6 15 1.7e-008 50 1 21.0215 12.25 0 10 1.78775 0.325464 -3.44314
 1.33 2.9 6.38 200 120 1 1.1 4 0.55 3.5 34.4 29.02 4.38 1 3.09 6.2 11.6 15 1.7e-008 50 1 21.0215 12.25 0 10 1.80619 -0.859327 -3.05825
 1.33 2.9 6.38 200 120 1 1.1 4 0.55 3.5 34.4 29.02 4.38 1 3.09 6.2 11.6 15 1.7e-008 50 1 21.0215 12.25 0 10 1.82462 -0.566249 -1.86558
 1.33 2.9 6.38 200 120 1 1.1 4 0.55 3.5 34.4 29.02 4.38 1 3.09 6.2 11.6 15 1.7e-008 50 1 21.0215 12.25 0 10 1.84305 0.794612 -2.06549
 1.33 2.9 6.38 200 120 1 1.1 4 0.55 3.5 34.4 29.02 4.38 1 3.09 6.2 11.6 15 1.7e-008 50 1 21.0215 12.25 0 10 1.86148 0.919881 -3.59654
 1.33 2.9 6.38 200 120 1 1.1 4 0.55 3.5 34.4 29.02 4.38 1 3.09 6.2 11.6 15 1.7e-008 50 1 21.0215 12.25 0 10 1.87991 -0.502017 -4.11003
 1.33 2.9 6.38 200 120 1 1.1 4 0.55 3.5 34.4 29.02 4.38 1 3.09 6.2 11.6 15 1.7e-008 50 1 21.0215 12.25 0 10 1.89834 -1.13255 -2.90062
 1.33 2.9 6.38 200 120 1 1.1 4 0.55 3.5 34.4 29.02 4.38 1 3.09 6.2 11.6 15 1.7e-008 50 1 21.0215 12.25 0 10 1.91677 0.163968 -2.21876
 1.33 2.9 6.38 200 120 1 1.1 4 0.55 3.5 34.4 29.02 4.38 1 3.09 6.2 11.6 15 1.7e-008 50 1 21.0215 12.25 0 10 1.9352 1.39065 -3.64198
 1.33 2.9 6.38 200 120 1 1.1 4 0.55 3.5 34.4 29.02 4.38 1 3.09 6.2 11.6 15 1.7e-008 50 1 21.0215 12.25 0 10 1.95363 0.730007 -5.69152
 1.33 2.9 6.38 200 120 1 1.1 4 0.55 3.5 34.4 29.02 4.38 1 3.09 6.2 11.6 15 1.7e-008 50 1 21.0215 12.25 0 10 1.97206 -0.839525 -7.21691
 1.33 2.9 6.38 200 120 1 1.1 4 0.55 3.5 34.4 29.02 4.38 1 3.09 6.2 11.6 15 1.7e-008 50 1 21.0215 12.25 0 10 1.99049 -7.56884 -17.5319
 1.33 2.9 6.38 200 120 1 1.1 4 0.55 3.5 34.4 29.02 4.38 1 3.09 6.2 11.6 15 1.7e-008 50 1 21.0215 12.25 0 10 2.00892 5.7615 -2.46213
 1.33 2.9 6.38 200 120 1 1.1 4 0.55 3.5 34.4 29.02 4.38 1 3.09 6.2 11.6 15 1.7e-008 50 1 21.0215 12.25 0 10 2.02735 -0.170036 -7.52076
 1.33 2.9 6.38 200 120 1 1.1 4 0.55 3.5 34.4 29.02 4.38 1 3.09 6.2 11.6 15 1.7e-008 50 1 21.0215 12.25 0 10 2.04578 -5.07921 -5.40376
 1.33 2.9 6.38 200 120 1 1.1 4 0.55 3.5 34.4 29.02 4.38 1 3.09 6.2 11.6 15 1.7e-008 75 1 21.0215 12.25 0 10 0.00955653 0.0160645 -1.81306
 1.33 2.9 6.38 200 120 1 1.1 4 0.55 3.5 34.4 29.02 4.38 1 3.09 6.2 11.6 15 1.7e-008 75 1 21.0215 12.25 0 10 0.0218435 -0.0067582 -1.81035
 1.33 2.9 6.38 200 120 1 1.1 4 0.55 3.5 34.4 29.02 4.38 1 3.09 6.2 11.6 15 1.7e-008 75 1 21.0215 12.25 0 10 0.0341305 -0.0223959 -1.82869
 1.33 2.9 6.38 200 120 1 1.1 4 0.55 3.5 34.4 29.02 4.38 1 3.09 6.2 11.6 15 1.7e-008 75 1 21.0215 12.25 0 10 0.0464175 -0.0137741 -1.85175
 1.33 2.9 6.38 200 120 1 1.1 4 0.55 3.5 34.4 29.02 4.38 1 3.09 6.2 11.6 15 1.7e-008 75 1 21.0215 12.25 0 10 0.0587044 0.0105537 -1.8551
 1.33 2.9 6.38 200 120 1 1.1 4 0.55 3.5 34.4 29.02 4.38 1 3.09 6.2 11.6 15 1.7e-008 75 1 21.0215 12.25 0 10 0.0709914 0.0243311 -1.8353
 1.33 2.9 6.38 200 120 1 1.1 4 0.55 3.5 34.4 29.02 4.38 1 3.09 6.2 11.6 15 1.7e-008 75 1 21.0215 12.25 0 10 0.0832784 0.0123158 -1.81448
 1.33 2.9 6.38 200 120 1 1.1 4 0.55 3.5 34.4 29.02 4.38 1 3.09 6.2 11.6 15 1.7e-008 75 1 21.0215 12.25 0 10 0.0955653 -0.0124917 -1.81647
 1.33 2.9 6.38 200 120 1 1.1 4 0.55 3.5 34.4 29.02 4.38 1 3.09 6.2 11.6 15 1.7e-008 75 1 21.0215 12.25 0 10 0.107852 -0.0226137 -1.84048
 1.33 2.9 6.38 200 120 1 1.1 4 0.55 3.5 34.4 29.02 4.38 1 3.09 6.2 11.6 15 1.7e-008 75 1 21.0215 12.25 0 10 0.120139 -0.00628831 -1.86128
 1.33 2.9 6.38 200 120 1 1.1 4 0.55 3.5 34.4 29.02 4.38 1 3.09 6.2 11.6 15 1.7e-008 75 1 21.0215 12.25 0 10 0.132426 0.019063 -1.85677
 1.33 2.9 6.38 200 120 1 1.1 4 0.55 3.5 34.4 29.02 4.38 1 3.09 6.2 11.6 15 1.7e-008 75 1 21.0215 12.25 0 10 0.144713 0.0254706 -1.83265
 1.33 2.9 6.38 200 120 1 1.1 4 0.55 3.5 34.4 29.02 4.38 1 3.09 6.2 11.6 15 1.7e-008 75 1 21.0215 12.25 0 10 0.157 0.00536728 -1.81686
 1.33 2.9 6.38 200 120 1 1.1 4 0.55 3.5 34.4 29.02 4.38 1 3.09 6.2 11.6 15 1.7e-008 75 1 21.0215 12.25 0 10 0.169287 -0.0193211 -1.82901
 1.33 2.9 6.38 200 120 1 1.1 4 0.55 3.5 34.4 29.02 4.38 1 3.09 6.2 11.6 15 1.7e-008 75 1 21.0215 12.25 0 10 0.181574 -0.0207887 -1.85811
 1.33 2.9 6.38 200 120 1 1.1 4 0.55 3.5 34.4 29.02 4.38 1 3.09 6.2 11.6 15 1.7e-008 75 1 21.0215 12.25 0 10 0.193861 0.00361778 -1.87382
 1.33 2.9 6.38 200 120 1 1.1 4 0.55 3.5 34.4 29.02 4.38 1 3.09 6.2 11.6 15 1.7e-008 75 1 21.0215 12.25 0 10 0.206148 0.027468 -1.85991
 1.33 2.9 6.38 200 120 1 1.1 4 0.55 3.5 34.4 29.02 4.38 1 3.09 6.2 11.6 15 1.7e-008 75 1 21.0215 12.25 0 10 0.218435 0.0238913 -1.83313
 1.33 2.9 6.38 200 120 1 1.1 4 0.55 3.5 34.4 29.02 4.38 1 3.09 6.2 11.6 15 1.7e-008 75 1 21.0215 12.25 0 10 0.230722 -0.00403707 -1.82564
 1.33 2.9 6.38 200 120 1 1.1 4 0.55 3.5 34.4 29.02 4.38 1 3.09 6.2 11.6 15 1.7e-008 75 1 21.0215 12.25 0 10 0.243009 -0.0254963 -1.84929
 1.33 2.9 6.38 200 120 1 1.1 4 0.55 3.5 34.4 29.02 4.38 1 3.09 6.2 11.6 15 1.7e-008 75 1 21.0215 12.25 0 10 0.255296 -0.0155841 -1.88126
 1.33 2.9 6.38 200 120 1 1.1 4 0.55 3.5 34.4 29.02 4.38 1 3.09 6.2 11.6 15 1.7e-008 75 1 21.0215 12.25 0 10 0.267583 0.0160894 -1.88827
 1.33 2.9 6.38 200 120 1 1.1 4 0.55 3.5 34.4 29.02 4.38 1 3.09 6.2 11.6 15 1.7e-008 75 1 21.0215 12.25 0 10 0.27987 0.0346056 -1.86404
 1.33 2.9 6.38 200 120 1 1.1 4 0.55 3.5 34.4 29.02 4.38 1 3.09 6.2 11.6 15 1.7e-008 75 1 21.0215 12.25 0 10 0.292157 0.0182585 -1.83778
 1.33 2.9 6.38 200 120 1 1.1 4 0.55 3.5 34.4 29.02 4.38 1 3.09 6.2 11.6 15 1.7e-008 75 1 21.0215 12.25 0 10 0.304444 -0.0159357 -1.8428
 1.33 2.9 6.38 200 120 1 1.1 4 0.55 3.5 34.4 29.02 4.38 1 3.09 6.2 11.6 15 1.7e-008 75 1 21.0215 12.25 0 10 0.316731 -0.0295452 -1.87857
 1.33 2.9 6.38 200 120 1 1.1 4 0.55 3.5 34.4 29.02 4.38 1 3.09 6.2 11.6 15 1.7e-008 75 1 21.0215 12.25 0 10 0.329018 -0.00554157 -1.90941
 1.33 2.9 6.38 200 120 1 1.1 4 0.55 3.5 34.4 29.02 4.38 1 3.09 6.2 11.6 15 1.7e-008 75 1 21.0215 12.25 0 10 0.341305 0.0308574 -1.90334
 1.33 2.9 6.38 200 120 1 1.1 4 0.55 3.5 34.4 29.02 4.38 1 3.09 6.2 11.6 15 1.7e-008 75 1 21.0215 12.25 0 10 0.353592 0.0385918 -1.86912
 1.33 2.9 6.38 200 120 1 1.1 4 0.55 3.5 34.4 29.02 4.38 1 3.09 6.2 11.6 15 1.7e-008 75 1 21.0215 12.25 0 10 0.365879 0.00708002 -1.84875
 1.33 2.9 6.38 200 120 1 1.1 4 0.55 3.5 34.4 29.02 4.38 1 3.09 6.2 11.6 15 1.7e-008 75 1 21.0215 12.25 0 10 0.378166 -0.0295894 -1.87115
 1.33 2.9 6.38 200 120 1 1.1 4 0.55 3.5 34.4 29.02 4.38 1 3.09 6.2 11.6 15 1.7e-008 75 1 21.0215 12.25 0 10 0.390453 -0.0290694 -1.91788
 1.33 2.9 6.38 200 120 1 1.1 4 0.55 3.5 34.4 29.02 4.38 1 3.09 6.2 11.6 15 1.7e-008 75 1 21.0215 12.25 0 10 0.40274 0.0107835 -1.94123
 1.33 2.9 6.38 200 120 1 1.1 4 0.55 3.5 34.4 29.02 4.38 1 3.09 6.2 11.6 15 1.7e-008 75 1 21.0215 12.25 0 10 0.415027 0.0465969 -1.91748
 1.33 2.9 6.38 200 120 1 1.1 4 0.55 3.5 34.4 29.02 4.38 1 3.09 6.2 11.6 15 1.7e-008 75 1 21.0215 12.25 0 10 0.427314 0.0365567 -1.8762
 1.33 2.9 6.38 200 120 1 1.1 4 0.55 3.5 34.4 29.02 4.38 1 3.09 6.2 11.6 15 1.7e-008 75 1 21.0215 12.25 0 10 0.439601 -0.0108426 -1.86979
 1.33 2.9 6.38 200 120 1 1.1 4 0.55 3.5 34.4 29.02 4.38 1 3.09 6.2 11.6 15 1.7e-008 75 1 21.0215 12.25 0 10 0.451888 -0.0428889 -1.91421
 1.33 2.9 6.38 200 120 1 1.1 4 0.55 3.5 34.4 29.02 4.38 1 3.09 6.2 11.6 15 1.7e-008 75 1 21.0215 12.25 0 10 0.464175 -0.0207138 -1.96751
 1.33 2.9 6.38 200 120 1 1.1 4 0.55 3.5 34.4 29.02 4.38 1 3.09 6.2 11.6 15 1.7e-008 75 1 21.0215 12.25 0 10 0.476462 0.0342149 -1.97432
 1.33 2.9 6.38 200 120 1 1.1 4 0.55 3.5 34.4 29.02 4.38 1 3.09 6.2 11.6 15 1.7e-008 75 1 21.0215 12.25 0 10 0.488748 0.0603225 -1.9295
 1.33 2.9 6.38 200 120 1 1.1 4 0.55 3.5 34.4 29.02 4.38 1 3.09 6.2 11.6 15 1.7e-008 75 1 21.0215 12.25 0 10 0.501035 0.0247519 -1.88832
 1.33 2.9 6.38 200 120 1 1.1 4 0.55 3.5 34.4 29.02 4.38 1 3.09 6.2 11.6 15 1.7e-008 75 1 21.0215 12.25 0 10 0.513322 -0.0356894 -1.90677
 1.33 2.9 6.38 200 120 1 1.1 4 0.55 3.5 34.4 29.02 4.38 1 3.09 6.2 11.6 15 1.7e-008 75 1 21.0215 12.25 0 10 0.525609 -0.0517573 -1.97582
 1.33 2.9 6.38 200 120 1 1.1 4 0.55 3.5 34.4 29.02 4.38 1 3.09 6.2 11.6 15 1.7e-008 75 1 21.0215 12.25 0 10 0.537896 -0.000370823 -2.02641
 1.33 2.9 6.38 200 120 1 1.1 4 0.55 3.5 34.4 29.02 4.38 1 3.09 6.2 11.6 15 1.7e-008 75 1 21.0215 12.25 0 10 0.550183 0.0640835 -2.00536
 1.33 2.9 6.38 200 120 1 1.1 4 0.55 3.5 34.4 29.02 4.38 1 3.09 6.2 11.6 15 1.7e-008 75 1 21.0215 12.25 0 10 0.56247 0.0667905 -1.93958
 1.33 2.9 6.38 200 120 1 1.1 4 0.55 3.5 34.4 29.02 4.38 1 3.09 6.2 11.6 15 1.7e-008 75 1 21.0215 12.25 0 10 0.574757 -0.00106069 -1.91179
 1.33 2.9 6.38 200 120 1 1.1 4 0.55 3.5 34.4 29.02 4.38 1 3.09 6.2 11.6 15 1.7e-008 75 1 21.0215 12.25 0 10 0.587044 -0.0655622 -1.96805
 1.33 2.9 6.38 200 120 1 1.1 4 0.55 3.5 34.4 29.02 4.38 1 3.09 6.2 11.6 15 1.7e-008 75 1 21.0215 12.25 0 10 0.599331 -0.0495568 -2.05967
 1.33 2.9 6.38 200 120 1 1.1 4 0.55 3.5 34.4 29.02 4.38 1 3.09 6.2 11.6 15 1.7e-008 75 1 21.0215 12.25 0 10 0.611618 0.036224 -2.0916
 1.33 2.9 6.38 200 120 1 1.1 4 0.55 3.5 34.4 29.02 4.38 1 3.09 6.2 11.6 15 1.7e-008 75 1 21.0215 12.25 0 10 0.623905 0.0969874 -2.03055
 1.33 2.9 6.38 200 120 1 1.1 4 0.55 3.5 34.4 29.02 4.38 1 3.09 6.2 11.6 15 1.7e-008 75 1 21.0215 12.25 0 10 0.636192 0.057878 -1.95099
 1.33 2.9 6.38 200 120 1 1.1 4 0.55 3.5 34.4 29.02 4.38 1 3.09 6.2 11.6 15 1.7e-008 75 1 21.0215 12.25 0 10 0.648479 -0.0448374 -1.95796
 1.33 2.9 6.38 200 120 1 1.1 4 0.55 3.5 34.4 29.02 4.38 1 3.09 6.2 11.6 15 1.7e-008 75 1 21.0215 12.25 0 10 0.660766 -0.094994 -2.06515
 1.33 2.9 6.38 200 120 1 1.1 4 0.55 3.5 34.4 29.02 4.38 1 3.09 6.2 11.6 15 1.7e-008 75 1 21.0215 12.25 0 10 0.673053 -0.0263804 -2.16858
 1.33 2.9 6.38 200 120 1 1.1 4 0.55 3.5 34.4 29.02 4.38 1 3.09 6.2 11.6 15 1.7e-008 75 1 21.0215 12.25 0 10 0.68534 0.0925027 -2.15768
 1.33 2.9 6.38 200 120 1 1.1 4 0.55 3.5 34.4 29.02 4.38 1 3.09 6.2 11.6 15 1.7e-008 75 1 21.0215 12.25 0 10 0.697627 0.12493 -2.04688
 1.33 2.9 6.38 200 120 1 1.1 4 0.55 3.5 34.4 29.02 4.38 1 3.09 6.2 11.6 15 1.7e-008 75 1 21.0215 12.25 0 10 0.709914 0.0217862 -1.97314
 1.33 2.9 6.38 200 120 1 1.1 4 0.55 3.5 34.4 29.02 4.38 1 3.09 6.2 11.6 15 1.7e-008 75 1 21.0215 12.25 0 10 0.722201 -0.10892 -2.04634
 1.33 2.9 6.38 200 120 1 1.1 4 0.55 3.5 34.4 29.02 4.38 1 3.09 6.2 11.6 15 1.7e-008 75 1 21.0215 12.25 0 10 0.734488 -0.112519 -2.21397
 1.33 2.9 6.38 200 120 1 1.1 4 0.55 3.5 34.4 29.02 4.38 1 3.09 6.2 11.6 15 1.7e-008 75 1 21.0215 12.25 0 10 0.746775 0.032 -2.3039
 1.33 2.9 6.38 200 120 1 1.1 4 0.55 3.5 34.4 29.02 4.38 1 3.09 6.2 11.6 15 1.7e-008 75 1 21.0215 12.25 0 10 0.759062 0.169346 -2.21654
 1.33 2.9 6.38 200 120 1 1.1 4 0.55 3.5 34.4 29.02 4.38 1 3.09 6.2 11.6 15 1.7e-008 75 1 21.0215 12.25 0 10 0.771349 0.132087 -2.05492
 1.33 2.9 6.38 200 120 1 1.1 4 0.55 3.5 34.4 29.02 4.38 1 3.09 6.2 11.6 15 1.7e-008 75 1 21.0215 12.25 0 10 0.783636 -0.0584784 -2.02773
 1.33 2.9 6.38 200 120 1 1.1 4 0.55 3.5 34.4 29.02 4.38 1 3.09 6.2 11.6 15 1.7e-008 75 1 21.0215 12.25 0 10 0.795923 -0.191683 -2.21143
 1.33 2.9 6.38 200 120 1 1.1 4 0.55 3.5 34.4 29.02 4.38 1 3.09 6.2 11.6 15 1.7e-008 75 1 21.0215 12.25 0 10 0.80821 -0.0959669 -2.43855
 1.33 2.9 6.38 200 120 1 1.1 4 0.55 3.5 34.4 29.02 4.38 1 3.09 6.2 11.6 15 1.7e-008 75 1 21.0215 12.25 0 10 0.820497 0.146676 -2.4654
 1.33 2.9 6.38 200 120 1 1.1 4 0.55 3.5 34.4 29.02 4.38 1 3.09 6.2 11.6 15 1.7e-008 75 1 21.0215 12.25 0 10 0.832784 0.261878 -2.25764
 1.33 2.9 6.38 200 120 1 1.1 4 0.55 3.5 34.4 29.02 4.38 1 3.09 6.2 11.6 15 1.7e-008 75 1 21.0215 12.25 0 10 0.845071 0.0875456 -2.06548
 1.33 2.9 6.38 200 120 1 1.1 4 0.55 3.5 34.4 29.02 4.38 1 3.09 6.2 11.6 15 1.7e-008 75 1 21.0215 12.25 0 10 0.857358 -0.209519 -2.16429
 1.33 2.9 6.38 200 120 1 1.1 4 0.55 3.5 34.4 29.02 4.38 1 3.09 6.2 11.6 15 1.7e-008 75 1 21.0215 12.25 0 10 0.869645 -0.282663 -2.52161
 1.33 2.9 6.38 200 120 1 1.1 4 0.55 3.5 34.4 29.02 4.38 1 3.09 6.2 11.6 15 1.7e-008 75 1 21.0215 12.25 0 10 0.881932 6.4019e-05 -2.78371
 1.33 2.9 6.38 200 120 1 1.1 4 0.55 3.5 34.4 29.02 4.38 1 3.09 6.2 11.6 15 1.7e-008 75 1 21.0215 12.25 0 10 0.894219 0.3543 -2.65359
 1.33 2.9 6.38 200 120 1 1.1 4 0.55 3.5 34.4 29.02 4.38 1 3.09 6.2 11.6 15 1.7e-008 75 1 21.0215 12.25 0 10 0.906506 0.351759 -2.26936
 1.33 2.9 6.38 200 120 1 1.1 4 0.55 3.5 34.4 29.02 4.38 1 3.09 6.2 11.6 15 1.7e-008 75 1 21.0215 12.25 0 10 0.918793 -0.0778088 -2.1203
 1.33 2.9 6.38 200 120 1 1.1 4 0.55 3.5 34.4 29.02 4.38 1 3.09 6.2 11.6 15 1.7e-008 75 1 21.0215 12.25 0 10 0.93108 -0.485106 -2.51317
 1.33 2.9 6.38 200 120 1 1.1 4 0.55 3.5 34.4 29.02 4.38 1 3.09 6.2 11.6 15 1.7e-008 75 1 21.0215 12.25 0 10 0.943366 -0.347833 -3.15193
 1.33 2.9 6.38 200 120 1 1.1 4 0.55 3.5 34.4 29.02 4.38 1 3.09 6.2 11.6 15 1.7e-008 75 1 21.0215 12.25 0 10 0.955653 0.293284 -3.37124
 1.33 2.9 6.38 200 120 1 1.1 4 0.55 3.5 34.4 29.02 4.38 1 3.09 6.2 11.6 15 1.7e-008 75 1 21.0215 12.25 0 10 0.96794 0.748091 -2.88381
 1.33 2.9 6.38 200 120 1 1.1 4 0.55 3.5 34.4 29.02 4.38 1 3.09 6.2 11.6 15 1.7e-008 75 1 21.0215 12.25 0 10 0.980227 0.376584 -2.24474
 1.33 2.9 6.38 200 120 1 1.1 4 0.55 3.5 34.4 29.02 4.38 1 3.09 6.2 11.6 15 1.7e-008 75 1 21.0215 12.25 0 10 0.992514 -0.588495 -2.39204
 1.33 2.9 6.38 200 120 1 1.1 4 0.55 3.5 34.4 29.02 4.38 1 3.09 6.2 11.6 15 1.7e-008 75 1 21.0215 12.25 0 10 1.0048 -1.07209 -3.5826
 1.33 2.9 6.38 200 120 1 1.1 4 0.55 3.5 34.4 29.02 4.38 1 3.09 6.2 11.6 15 1.7e-008 75 1 21.0215 12.25 0 10 1.01709 -0.244206 -4.85379
 1.33 2.9 6.38 200 120 1 1.1 4 0.55 3.5 34.4 29.02 4.38 1 3.09 6.2 11.6 15 1.7e-008 75 1 21.0215 12.25 0 10 1.02938 1.33374 -4.82448
 1.33 2.9 6.38 200 120 1 1.1 4 0.55 3.5 34.4 29.02 4.38 1 3.09 6.2 11.6 15 1.7e-008 75 1 21.0215 12.25 0 10 1.04166 1.84772 -3.31765
 1.33 2.9 6.38 200 120 1 1.1 4 0.55 3.5 34.4 29.02 4.38 1 3.09 6.2 11.6 15 1.7e-008 75 1 21.0215 12.25 0 10 1.05395 -0.0865561 -2.23456
 1.33 2.9 6.38 200 120 1 1.1 4 0.55 3.5 34.4 29.02 4.38 1 3.09 6.2 11.6 15 1.7e-008 75 1 21.0215 12.25 0 10 1.06624 -3.53023 -4.61648
 1.33 2.9 6.38 200 120 1 1.1 4 0.55 3.5 34.4 29.02 4.38 1 3.09 6.2 11.6 15 1.7e-008 75 1 21.0215 12.25 0 10 1.07852 -4.72285 -12.9882
 1.33 2.9 6.38 200 120 1 1.1 4 0.55 3.5 34.4 29.02 4.38 1 3.09 6.2 11.6 15 1.7e-008 75 1 21.0215 12.25 0 10 1.09081 4.97845 -34.9906
 1.33 2.9 6.38 200 120 1 1.1 4 0.55 3.5 34.4 29.02 4.38 1 3.09 6.2 11.6 15 1.7e-008 75 1 21.0215 12.25 0 10 1.1031 -34.6751 37.4123
 1.33 2.9 6.38 200 120 1 1.1 4 0.55 3.5 34.4 29.02 4.38 1 3.09 6.2 11.6 15 1.7e-008 75 1 21.0215 12.25 0 10 1.11538 -4.09524 -0.60228
 1.33 2.9 6.38 200 120 1 1.1 4 0.55 3.5 34.4 29.02 4.38 1 3.09 6.2 11.6 15 1.7e-008 75 1 21.0215 12.25 0 10 1.12767 2.53132 -1.79002
 1.33 2.9 6.38 200 120 1 1.1 4 0.55 3.5 34.4 29.02 4.38 1 3.09 6.2 11.6 15 1.7e-008 75 1 21.0215 12.25 0 10 1.13996 3.82081 1.72519
 1.33 2.9 6.38 200 120 1 1.1 4 0.55 3.5 34.4 29.02 4.38 1 3.09 6.2 11.6 15 1.7e-008 75 1 21.0215 12.25 0 10 1.15225 1.08286 3.5444
 1.33 2.9 6.38 200 120 1 1.1 4 0.55 3.5 34.4 29.02 4.38 1 3.09 6.2 11.6 15 1.7e-008 75 1 21.0215 12.25 0 10 1.16453 -1.81282 2.04862
 1.33 2.9 6.38 200 120 1 1.1 4 0.55 3.5 34.4 29.02 4.38 1 3.09 6.2 11.6 15 1.7e-008 75 1 21.0215 12.25 0 10 1.17682 -2.15758 -0.893838
 1.33 2.9 6.38 200 120 1 1.1 4 0.55 3.5 34.4 29.02 4.38 1 3.09 6.2 11.6 15 1.7e-008 75 1 21.0215 12.25 0 10 1.18911 -0.225723 -2.44131
 1.33 2.9 6.38 200 120 1 1.1 4 0.55 3.5 34.4 29.02 4.38 1 3.09 6.2 11.6 15 1.7e-008 75 1 21.0215 12.25 0 10 1.20139 1.60313 -1.57996
 1.33 2.9 6.38 200 120 1 1.1 4 0.55 3.5 34.4 29.02 4.38 1 3.09 6.2 11.6 15 1.7e-008 75 1 21.0215 12.25 0 10 1.21368 1.46943 0.207714
 1.33 2.9 6.38 200 120 1 1.1 4 0.55 3.5 34.4 29.02 4.38 1 3.09 6.2 11.6 15 1.7e-008 75 1 21.0215 12.25 0 10 1.22597 -0.215828 0.759284
 1.33 2.9 6.38 200 120 1 1.1 4 0.55 3.5 34.4 29.02 4.38 1 3.09 6.2 11.6 15 1.7e-008 75 1 21.0215 12.25 0 10 1.23825 -1.48111 -0.503118
 1.33 2.9 6.38 200 120 1 1.1 4 0.55 3.5 34.4 29.02 4.38 1 3.09 6.2 11.6 15 1.7e-008 75 1 21.0215 12.25 0 10 1.25054 -1.00642 -2.15801
 1.33 2.9 6.38 200 120 1 1.1 4 0.55 3.5 34.4 29.02 4.38 1 3.09 6.2 11.6 15 1.7e-008 75 1 21.0215 12.25 0 10 1.26283 0.548696 -2.47373
 1.33 2.9 6.38 200 120 1 1.1 4 0.55 3.5 34.4 29.02 4.38 1 3.09 6.2 11.6 15 1.7e-008 75 1 21.0215 12.25 0 10 1.27511 1.40621 -1.28417
 1.33 2.9 6.38 200 120 1 1.1 4 0.55 3.5 34.4 29.02 4.38 1 3.09 6.2 11.6 15 1.7e-008 75 1 21.0215 12.25 0 10 1.2874 0.662312 -0.0654677
 1.33 2.9 6.38 200 120 1 1.1 4 0.55 3.5 34.4 29.02 4.38 1 3.09 6.2 11.6 15 1.7e-008 75 1 21.0215 12.25 0 10 1.29969 -0.778254 -0.238817
 1.33 2.9 6.38 200 120 1 1.1 4 0.55 3.5 34.4 29.02 4.38 1 3.09 6.2 11.6 15 1.7e-008 75 1 21.0215 12.25 0 10 1.31198 -1.27956 -1.61566
 1.33 2.9 6.38 200 120 1 1.1 4 0.55 3.5 34.4 29.02 4.38 1 3.09 6.2 11.6 15 1.7e-008 75 1 21.0215 12.25 0 10 1.32426 -0.309293 -2.66899
 1.33 2.9 6.38 200 120 1 1.1 4 0.55 3.5 34.4 29.02 4.38 1 3.09 6.2 11.6 15 1.7e-008 75 1 21.0215 12.25 0 10 1.33655 1.00371 -2.27189
 1.33 2.9 6.38 200 120 1 1.1 4 0.55 3.5 34.4 29.02 4.38 1 3.09 6.2 11.6 15 1.7e-008 75 1 21.0215 12.25 0 10 1.34884 1.16945 -0.94736
 1.33 2.9 6.38 200 120 1 1.1 4 0.55 3.5 34.4 29.02 4.38 1 3.09 6.2 11.6 15 1.7e-008 75 1 21.0215 12.25 0 10 1.36112 0.0148538 -0.253665
 1.33 2.9 6.38 200 120 1 1.1 4 0.55 3.5 34.4 29.02 4.38 1 3.09 6.2 11.6 15 1.7e-008 100 1 21.0215 12.25 0 10 0.00511957 0.0729604 -1.86016
 1.33 2.9 6.38 200 120 1 1.1 4 0.55 3.5 34.4 29.02 4.38 1 3.09 6.2 11.6 15 1.7e-008 100 1 21.0215 12.25 0 10 0.0143348 -0.0283964 -1.89368
 1.33 2.9 6.38 200 120 1 1.1 4 0.55 3.5 34.4 29.02 4.38 1 3.09 6.2 11.6 15 1.7e-008 100 1 21.0215 12.25 0 10 0.02355 0.0207867 -1.87943
 1.33 2.9 6.38 200 120 1 1.1 4 0.55 3.5 34.4 29.02 4.38 1 3.09 6.2 11.6 15 1.7e-008 100 1 21.0215 12.25 0 10 0.0327653 -0.0129265 -1.86774
 1.33 2.9 6.38 200 120 1 1.1 4 0.55 3.5 34.4 29.02 4.38 1 3.09 6.2 11.6 15 1.7e-008 100 1 21.0215 12.25 0 10 0.0419805 0.00544526 -1.89055
 1.33 2.9 6.38 200 120 1 1.1 4 0.55 3.5 34.4 29.02 4.38 1 3.09 6.2 11.6 15 1.7e-008 100 1 21.0215 12.25 0 10 0.0511957 0.00403756 -1.86462
 1.33 2.9 6.38 200 120 1 1.1 4 0.55 3.5 34.4 29.02 4.38 1 3.09 6.2 11.6 15 1.7e-008 100 1 21.0215 12.25 0 10 0.060411 -0.00915546 -1.88515
 1.33 2.9 6.38 200 120 1 1.1 4 0.55 3.5 34.4 29.02 4.38 1 3.09 6.2 11.6 15 1.7e-008 100 1 21.0215 12.25 0 10 0.0696262 0.0127237 -1.87805
 1.33 2.9 6.38 200 120 1 1.1 4 0.55 3.5 34.4 29.02 4.38 1 3.09 6.2 11.6 15 1.7e-008 100 1 21.0215 12.25 0 10 0.0788414 -0.00818855 -1.87108
 1.33 2.9 6.38 200 120 1 1.1 4 0.55 3.5 34.4 29.02 4.38 1 3.09 6.2 11.6 15 1.7e-008 100 1 21.0215 12.25 0 10 0.0880566 0.00327486 -1.89027
 1.33 2.9 6.38 200 120 1 1.1 4 0.55 3.5 34.4 29.02 4.38 1 3.09 6.2 11.6 15 1.7e-008 100 1 21.0215 12.25 0 10 0.0972719 0.00642965 -1.86963
 1.33 2.9 6.38 200 120 1 1.1 4 0.55 3.5 34.4 29.02 4.38 1 3.09 6.2 11.6 15 1.7e-008 100 1 21.0215 12.25 0 10 0.106487 -0.00933342 -1.88458
 1.33 2.9 6.38 200 120 1 1.1 4 0.55 3.5 34.4 29.02 4.38 1 3.09 6.2 11.6 15 1.7e-008 100 1 21.0215 12.25 0 10 0.115702 0.0119674 -1.88476
 1.33 2.9 6.38 200 120 1 1.1 4 0.55 3.5 34.4 29.02 4.38 1 3.09 6.2 11.6 15 1.7e-008 100 1 21.0215 12.25 0 10 0.124918 -0.00443047 -1.87235
 1.33 2.9 6.38 200 120 1 1.1 4 0.55 3.5 34.4 29.02 4.38 1 3.09 6.2 11.6 15 1.7e-008 100 1 21.0215 12.25 0 10 0.134133 -0.000461684 -1.89411
 1.33 2.9 6.38 200 120 1 1.1 4 0.55 3.5 34.4 29.02 4.38 1 3.09 6.2 11.6 15 1.7e-008 100 1 21.0215 12.25 0 10 0.143348 0.0103721 -1.87678
 1.33 2.9 6.38 200 120 1 1.1 4 0.55 3.5 34.4 29.02 4.38 1 3.09 6.2 11.6 15 1.7e-008 100 1 21.0215 12.25 0 10 0.152563 -0.0097553 -1.8847
 1.33 2.9 6.38 200 120 1 1.1 4 0.55 3.5 34.4 29.02 4.38 1 3.09 6.2 11.6 15 1.7e-008 100 1 21.0215 12.25 0 10 0.161778 0.010222 -1.89403
 1.33 2.9 6.38 200 120 1 1.1 4 0.55 3.5 34.4 29.02 4.38 1 3.09 6.2 11.6 15 1.7e-008 100 1 21.0215 12.25 0 10 0.170994 0.00067509 -1.87585
 1.33 2.9 6.38 200 120 1 1.1 4 0.55 3.5 34.4 29.02 4.38 1 3.09 6.2 11.6 15 1.7e-008 100 1 21.0215 12.25 0 10 0.180209 -0.00480474 -1.89828
 1.33 2.9 6.38 200 120 1 1.1 4 0.55 3.5 34.4 29.02 4.38 1 3.09 6.2 11.6 15 1.7e-008 100 1 21.0215 12.25 0 10 0.189424 0.0136241 -1.88733
 1.33 2.9 6.38 200 120 1 1.1 4 0.55 3.5 34.4 29.02 4.38 1 3.09 6.2 11.6 15 1.7e-008 100 1 21.0215 12.25 0 10 0.198639 -0.00840811 -1.88587
 1.33 2.9 6.38 200 120 1 1.1 4 0.55 3.5 34.4 29.02 4.38 1 3.09 6.2 11.6 15 1.7e-008 100 1 21.0215 12.25 0 10 0.207855 0.0065475 -1.90441
 1.33 2.9 6.38 200 120 1 1.1 4 0.55 3.5 34.4 29.02 4.38 1 3.09 6.2 11.6 15 1.7e-008 100 1 21.0215 12.25 0 10 0.21707 0.0067938 -1.88311
 1.33 2.9 6.38 200 120 1 1.1 4 0.55 3.5 34.4 29.02 4.38 1 3.09 6.2 11.6 15 1.7e-008 100 1 21.0215 12.25 0 10 0.226285 -0.00859175 -1.90206
 1.33 2.9 6.38 200 120 1 1.1 4 0.55 3.5 34.4 29.02 4.38 1 3.09 6.2 11.6 15 1.7e-008 100 1 21.0215 12.25 0 10 0.2355 0.0149125 -1.90109
 1.33 2.9 6.38 200 120 1 1.1 4 0.55 3.5 34.4 29.02 4.38 1 3.09 6.2 11.6 15 1.7e-008 100 1 21.0215 12.25 0 10 0.244716 -0.00459182 -1.88921
 1.33 2.9 6.38 200 120 1 1.1 4 0.55 3.5 34.4 29.02 4.38 1 3.09 6.2 11.6 15 1.7e-008 100 1 21.0215 12.25 0 10 0.253931 0.00116958 -1.91476
 1.33 2.9 6.38 200 120 1 1.1 4 0.55 3.5 34.4 29.02 4.38 1 3.09 6.2 11.6 15 1.7e-008 100 1 21.0215 12.25 0 10 0.263146 0.0129457 -1.89493
 1.33 2.9 6.38 200 120 1 1.1 4 0.55 3.5 34.4 29.02 4.38 1 3.09 6.2 11.6 15 1.7e-008 100 1 21.0215 12.25 0 10 0.272361 -0.01058 -1.9057
 1.33 2.9 6.38 200 120 1 1.1 4 0.55 3.5 34.4 29.02 4.38 1 3.09 6.2 11.6 15 1.7e-008 100 1 21.0215 12.25 0 10 0.281576 0.0134044 -1.91721
 1.33 2.9 6.38 200 120 1 1.1 4 0.55 3.5 34.4 29.02 4.38 1 3.09 6.2 11.6 15 1.7e-008 100 1 21.0215 12.25 0 10 0.290792 0.00167299 -1.89612
 1.33 2.9 6.38 200 120 1 1.1 4 0.55 3.5 34.4 29.02 4.38 1 3.09 6.2 11.6 15 1.7e-008 100 1 21.0215 12.25 0 10 0.300007 -0.00501626 -1.92423
 1.33 2.9 6.38 200 120 1 1.1 4 0.55 3.5 34.4 29.02 4.38 1 3.09 6.2 11.6 15 1.7e-008 100 1 21.0215 12.25 0 10 0.309222 0.017785 -1.91158
 1.33 2.9 6.38 200 120 1 1.1 4 0.55 3.5 34.4 29.02 4.38 1 3.09 6.2 11.6 15 1.7e-008 100 1 21.0215 12.25 0 10 0.318437 -0.00965423 -1.91014
 1.33 2.9 6.38 200 120 1 1.1 4 0.55 3.5 34.4 29.02 4.38 1 3.09 6.2 11.6 15 1.7e-008 100 1 21.0215 12.25 0 10 0.327653 0.00880348 -1.93445
 1.33 2.9 6.38 200 120 1 1.1 4 0.55 3.5 34.4 29.02 4.38 1 3.09 6.2 11.6 15 1.7e-008 100 1 21.0215 12.25 0 10 0.336868 0.0096864 -1.90804
 1.33 2.9 6.38 200 120 1 1.1 4 0.55 3.5 34.4 29.02 4.38 1 3.09 6.2 11.6 15 1.7e-008 100 1 21.0215 12.25 0 10 0.346083 -0.0106155 -1.9325
 1.33 2.9 6.38 200 120 1 1.1 4 0.55 3.5 34.4 29.02 4.38 1 3.09 6.2 11.6 15 1.7e-008 100 1 21.0215 12.25 0 10 0.355298 0.019891 -1.93268
 1.33 2.9 6.38 200 120 1 1.1 4 0.55 3.5 34.4 29.02 4.38 1 3.09 6.2 11.6 15 1.7e-008 100 1 21.0215 12.25 0 10 0.364514 -0.00508817 -1.91696
 1.33 2.9 6.38 200 120 1 1.1 4 0.55 3.5 34.4 29.02 4.38 1 3.09 6.2 11.6 15 1.7e-008 100 1 21.0215 12.25 0 10 0.373729 0.00147158 -1.95145
 1.33 2.9 6.38 200 120 1 1.1 4 0.55 3.5 34.4 29.02 4.38 1 3.09 6.2 11.6 15 1.7e-008 100 1 21.0215 12.25 0 10 0.382944 0.018115 -1.92613
 1.33 2.9 6.38 200 120 1 1.1 4 0.55 3.5 34.4 29.02 4.38 1 3.09 6.2 11.6 15 1.7e-008 100 1 21.0215 12.25 0 10 0.392159 -0.0139288 -1.93993
 1.33 2.9 6.38 200 120 1 1.1 4 0.55 3.5 34.4 29.02 4.38 1 3.09 6.2 11.6 15 1.7e-008 100 1 21.0215 12.25 0 10 0.401374 0.0180514 -1.95722
 1.33 2.9 6.38 200 120 1 1.1 4 0.55 3.5 34.4 29.02 4.38 1 3.09 6.2 11.6 15 1.7e-008 100 1 21.0215 12.25 0 10 0.41059 0.00323412 -1.9282
 1.33 2.9 6.38 200 120 1 1.1 4 0.55 3.5 34.4 29.02 4.38 1 3.09 6.2 11.6 15 1.7e-008 100 1 21.0215 12.25 0 10 0.419805 -0.00745615 -1.96699
 1.33 2.9 6.38 200 120 1 1.1 4 0.55 3.5 34.4 29.02 4.38 1 3.09 6.2 11.6 15 1.7e-008 100 1 21.0215 12.25 0 10 0.42902 0.0250877 -1.95106
 1.33 2.9 6.38 200 120 1 1.1 4 0.55 3.5 34.4 29.02 4.38 1 3.09 6.2 11.6 15 1.7e-008 100 1 21.0215 12.25 0 10 0.438235 -0.0132193 -1.94775
 1.33 2.9 6.38 200 120 1 1.1 4 0.55 3.5 34.4 29.02 4.38 1 3.09 6.2 11.6 15 1.7e-008 100 1 21.0215 12.25 0 10 0.447451 0.0115591 -1.98358
 1.33 2.9 6.38 200 120 1 1.1 4 0.55 3.5 34.4 29.02 4.38 1 3.09 6.2 11.6 15 1.7e-008 100 1 21.0215 12.25 0 10 0.456666 0.0145753 -1.94617
 1.33 2.9 6.38 200 120 1 1.1 4 0.55 3.5 34.4 29.02 4.38 1 3.09 6.2 11.6 15 1.7e-008 100 1 21.0215 12.25 0 10 0.465881 -0.0160618 -1.98036
 1.33 2.9 6.38 200 120 1 1.1 4 0.55 3.5 34.4 29.02 4.38 1 3.09 6.2 11.6 15 1.7e-008 100 1 21.0215 12.25 0 10 0.475096 0.0283918 -1.98274
 1.33 2.9 6.38 200 120 1 1.1 4 0.55 3.5 34.4 29.02 4.38 1 3.09 6.2 11.6 15 1.7e-008 100 1 21.0215 12.25 0 10 0.484312 -0.00705944 -1.95822
 1.33 2.9 6.38 200 120 1 1.1 4 0.55 3.5 34.4 29.02 4.38 1 3.09 6.2 11.6 15 1.7e-008 100 1 21.0215 12.25 0 10 0.493527 0.000553203 -2.00975
 1.33 2.9 6.38 200 120 1 1.1 4 0.55 3.5 34.4 29.02 4.38 1 3.09 6.2 11.6 15 1.7e-008 100 1 21.0215 12.25 0 10 0.502742 0.0272003 -1.97311
 1.33 2.9 6.38 200 120 1 1.1 4 0.55 3.5 34.4 29.02 4.38 1 3.09 6.2 11.6 15 1.7e-008 100 1 21.0215 12.25 0 10 0.511957 -0.0217519 -1.99177
 1.33 2.9 6.38 200 120 1 1.1 4 0.55 3.5 34.4 29.02 4.38 1 3.09 6.2 11.6 15 1.7e-008 100 1 21.0215 12.25 0 10 0.521172 0.0258254 -2.02009
 1.33 2.9 6.38 200 120 1 1.1 4 0.55 3.5 34.4 29.02 4.38 1 3.09 6.2 11.6 15 1.7e-008 100 1 21.0215 12.25 0 10 0.530388 0.00523945 -1.97456
 1.33 2.9 6.38 200 120 1 1.1 4 0.55 3.5 34.4 29.02 4.38 1 3.09 6.2 11.6 15 1.7e-008 100 1 21.0215 12.25 0 10 0.539603 -0.0136685 -2.03365
 1.33 2.9 6.38 200 120 1 1.1 4 0.55 3.5 34.4 29.02 4.38 1 3.09 6.2 11.6 15 1.7e-008 100 1 21.0215 12.25 0 10 0.548818 0.0383222 -2.01077
 1.33 2.9 6.38 200 120 1 1.1 4 0.55 3.5 34.4 29.02 4.38 1 3.09 6.2 11.6 15 1.7e-008 100 1 21.0215 12.25 0 10 0.558033 -0.0215097 -2.00276
 1.33 2.9 6.38 200 120 1 1.1 4 0.55 3.5 34.4 29.02 4.38 1 3.09 6.2 11.6 15 1.7e-008 100 1 21.0215 12.25 0 10 0.567249 0.0156485 -2.06096
 1.33 2.9 6.38 200 120 1 1.1 4 0.55 3.5 34.4 29.02 4.38 1 3.09 6.2 11.6 15 1.7e-008 100 1 21.0215 12.25 0 10 0.576464 0.0231735 -2.00086
 1.33 2.9 6.38 200 120 1 1.1 4 0.55 3.5 34.4 29.02 4.38 1 3.09 6.2 11.6 15 1.7e-008 100 1 21.0215 12.25 0 10 0.585679 -0.0283943 -2.05366
 1.33 2.9 6.38 200 120 1 1.1 4 0.55 3.5 34.4 29.02 4.38 1 3.09 6.2 11.6 15 1.7e-008 100 1 21.0215 12.25 0 10 0.594894 0.044209 -2.05997
 1.33 2.9 6.38 200 120 1 1.1 4 0.55 3.5 34.4 29.02 4.38 1 3.09 6.2 11.6 15 1.7e-008 100 1 21.0215 12.25 0 10 0.60411 -0.0123373 -2.0167
 1.33 2.9 6.38 200 120 1 1.1 4 0.55 3.5 34.4 29.02 4.38 1 3.09 6.2 11.6 15 1.7e-008 100 1 21.0215 12.25 0 10 0.613325 -0.00279768 -2.1022
 1.33 2.9 6.38 200 120 1 1.1 4 0.55 3.5 34.4 29.02 4.38 1 3.09 6.2 11.6 15 1.7e-008 100 1 21.0215 12.25 0 10 0.62254 0.0445417 -2.04173
 1.33 2.9 6.38 200 120 1 1.1 4 0.55 3.5 34.4 29.02 4.38 1 3.09 6.2 11.6 15 1.7e-008 100 1 21.0215 12.25 0 10 0.631755 -0.039356 -2.06941
 1.33 2.9 6.38 200 120 1 1.1 4 0.55 3.5 34.4 29.02 4.38 1 3.09 6.2 11.6 15 1.7e-008 100 1 21.0215 12.25 0 10 0.64097 0.0404956 -2.12004
 1.33 2.9 6.38 200 120 1 1.1 4 0.55 3.5 34.4 29.02 4.38 1 3.09 6.2 11.6 15 1.7e-008 100 1 21.0215 12.25 0 10 0.650186 0.00807204 -2.03914
 1.33 2.9 6.38 200 120 1 1.1 4 0.55 3.5 34.4 29.02 4.38 1 3.09 6.2 11.6 15 1.7e-008 100 1 21.0215 12.25 0 10 0.659401 -0.0283669 -2.14002
 1.33 2.9 6.38 200 120 1 1.1 4 0.55 3.5 34.4 29.02 4.38 1 3.09 6.2 11.6 15 1.7e-008 100 1 21.0215 12.25 0 10 0.668616 0.0649796 -2.10183
 1.33 2.9 6.38 200 120 1 1.1 4 0.55 3.5 34.4 29.02 4.38 1 3.09 6.2 11.6 15 1.7e-008 100 1 21.0215 12.25 0 10 0.677831 -0.0407971 -2.08267
 1.33 2.9 6.38 200 120 1 1.1 4 0.55 3.5 34.4 29.02 4.38 1 3.09 6.2 11.6 15 1.7e-008 100 1 21.0215 12.25 0 10 0.687047 0.022797 -2.18837
 1.33 2.9 6.38 200 120 1 1.1 4 0.55 3.5 34.4 29.02 4.38 1 3.09 6.2 11.6 15 1.7e-008 100 1 21.0215 12.25 0 10 0.696262 0.0404036 -2.07816
 1.33 2.9 6.38 200 120 1 1.1 4 0.55 3.5 34.4 29.02 4.38 1 3.09 6.2 11.6 15 1.7e-008 100 1 21.0215 12.25 0 10 0.705477 -0.0572382 -2.17066
 1.33 2.9 6.38 200 120 1 1.1 4 0.55 3.5 34.4 29.02 4.38 1 3.09 6.2 11.6 15 1.7e-008 100 1 21.0215 12.25 0 10 0.714692 0.0776048 -2.18509
 1.33 2.9 6.38 200 120 1 1.1 4 0.55 3.5 34.4 29.02 4.38 1 3.09 6.2 11.6 15 1.7e-008 100 1 21.0215 12.25 0 10 0.723907 -0.0258061 -2.09879
 1.33 2.9 6.38 200 120 1 1.1 4 0.55 3.5 34.4 29.02 4.38 1 3.09 6.2 11.6 15 1.7e-008 100 1 21.0215 12.25 0 10 0.733123 -0.0122977 -2.26006
 1.33 2.9 6.38 200 120 1 1.1 4 0.55 3.5 34.4 29.02 4.38 1 3.09 6.2 11.6 15 1.7e-008 100 1 21.0215 12.25 0 10 0.742338 0.082487 -2.1446
 1.33 2.9 6.38 200 120 1 1.1 4 0.55 3.5 34.4 29.02 4.38 1 3.09 6.2 11.6 15 1.7e-008 100 1 21.0215 12.25 0 10 0.751553 -0.0819643 -2.19171
 1.33 2.9 6.38 200 120 1 1.1 4 0.55 3.5 34.4 29.02 4.38 1 3.09 6.2 11.6 15 1.7e-008 100 1 21.0215 12.25 0 10 0.760768 0.0728021 -2.29375
 1.33 2.9 6.38 200 120 1 1.1 4 0.55 3.5 34.4 29.02 4.38 1 3.09 6.2 11.6 15 1.7e-008 100 1 21.0215 12.25 0 10 0.769984 0.0129441 -2.12842
 1.33 2.9 6.38 200 120 1 1.1 4 0.55 3.5 34.4 29.02 4.38 1 3.09 6.2 11.6 15 1.7e-008 100 1 21.0215 12.25 0 10 0.779199 -0.0657642 -2.32784
 1.33 2.9 6.38 200 120 1 1.1 4 0.55 3.5 34.4 29.02 4.38 1 3.09 6.2 11.6 15 1.7e-008 100 1 21.0215 12.25 0 10 0.788414 0.127649 -2.25223
 1.33 2.9 6.38 200 120 1 1.1 4 0.55 3.5 34.4 29.02 4.38 1 3.09 6.2 11.6 15 1.7e-008 100 1 21.0215 12.25 0 10 0.797629 -0.0903607 -2.20432
 1.33 2.9 6.38 200 120 1 1.1 4 0.55 3.5 34.4 29.02 4.38 1 3.09 6.2 11.6 15 1.7e-008 100 1 21.0215 12.25 0 10 0.806845 0.0382527 -2.42726
 1.33 2.9 6.38 200 120 1 1.1 4 0.55 3.5 34.4 29.02 4.38 1 3.09 6.2 11.6 15 1.7e-008 100 1 21.0215 12.25 0 10 0.81606 0.0818892 -2.1902
 1.33 2.9 6.38 200 120 1 1.1 4 0.55 3.5 34.4 29.02 4.38 1 3.09 6.2 11.6 15 1.7e-008 100 1 21.0215 12.25 0 10 0.825275 -0.133886 -2.38265
 1.33 2.9 6.38 200 120 1 1.1 4 0.55 3.5 34.4 29.02 4.38 1 3.09 6.2 11.6 15 1.7e-008 100 1 21.0215 12.25 0 10 0.83449 0.162379 -2.41816
 1.33 2.9 6.38 200 120 1 1.1 4 0.55 3.5 34.4 29.02 4.38 1 3.09 6.2 11.6 15 1.7e-008 100 1 21.0215 12.25 0 10 0.843705 -0.064033 -2.21705
 1.33 2.9 6.38 200 120 1 1.1 4 0.55 3.5 34.4 29.02 4.38 1 3.09 6.2 11.6 15 1.7e-008 100 1 21.0215 12.25 0 10 0.852921 -0.0408244 -2.58104
 1.33 2.9 6.38 200 120 1 1.1 4 0.55 3.5 34.4 29.02 4.38 1 3.09 6.2 11.6 15 1.7e-008 100 1 21.0215 12.25 0 10 0.862136 0.184447 -2.31542
 1.33 2.9 6.38 200 120 1 1.1 4 0.55 3.5 34.4 29.02 4.38 1 3.09 6.2 11.6 15 1.7e-008 100 1 21.0215 12.25 0 10 0.871351 -0.204655 -2.4152
 1.33 2.9 6.38 200 120 1 1.1 4 0.55 3.5 34.4 29.02 4.38 1 3.09 6.2 11.6 15 1.7e-008 100 1 21.0215 12.25 0 10 0.880566 0.162478 -2.66428
 1.33 2.9 6.38 200 120 1 1.1 4 0.55 3.5 34.4 29.02 4.38 1 3.09 6.2 11.6 15 1.7e-008 100 1 21.0215 12.25 0 10 0.889782 0.0242278 -2.25334
 1.33 2.9 6.38 200 120 1 1.1 4 0.55 3.5 34.4 29.02 4.38 1 3.09 6.2 11.6 15 1.7e-008 100 1 21.0215 12.25 0 10 0.898997 -0.181519 -2.7454
 1.33 2.9 6.38 200 120 1 1.1 4 0.55 3.5 34.4 29.02 4.38 1 3.09 6.2 11.6 15 1.7e-008 100 1 21.0215 12.25 0 10 0.908212 0.317367 -2.55818
 1.33 2.9 6.38 200 120 1 1.1 4 0.55 3.5 34.4 29.02 4.38 1 3.09 6.2 11.6 15 1.7e-008 100 1 21.0215 12.25 0 10 0.917427 -0.250873 -2.41987
 1.33 2.9 6.38 200 120 1 1.1 4 0.55 3.5 34.4 29.02 4.38 1 3.09 6.2 11.6 15 1.7e-008 100 1 21.0215 12.25 0 10 0.926643 0.0848393 -3.02272
 1.33 2.9 6.38 200 120 1 1.1 4 0.55 3.5 34.4 29.02 4.38 1 3.09 6.2 11.6 15 1.7e-008 100 1 21.0215 12.25 0 10 0.935858 0.21717 -2.36899
 1.33 2.9 6.38 200 120 1 1.1 4 0.55 3.5 34.4 29.02 4.38 1 3.09 6.2 11.6 15 1.7e-008 100 1 21.0215 12.25 0 10 0.945073 -0.404379 -2.90492
 1.33 2.9 6.38 200 120 1 1.1 4 0.55 3.5 34.4 29.02 4.38 1 3.09 6.2 11.6 15 1.7e-008 100 1 21.0215 12.25 0 10 0.954288 0.463299 -3.02403
 1.33 2.9 6.38 200 120 1 1.1 4 0.55 3.5 34.4 29.02 4.38 1 3.09 6.2 11.6 15 1.7e-008 100 1 21.0215 12.25 0 10 0.963503 -0.212519 -2.40524
 1.33 2.9 6.38 200 120 1 1.1 4 0.55 3.5 34.4 29.02 4.38 1 3.09 6.2 11.6 15 1.7e-008 100 1 21.0215 12.25 0 10 0.972719 -0.157077 -3.55685
 1.33 2.9 6.38 200 120 1 1.1 4 0.55 3.5 34.4 29.02 4.38 1 3.09 6.2 11.6 15 1.7e-008 100 1 21.0215 12.25 0 10 0.981934 0.596737 -2.70631
 1.33 2.9 6.38 200 120 1 1.1 4 0.55 3.5 34.4 29.02 4.38 1 3.09 6.2 11.6 15 1.7e-008 100 1 21.0215 12.25 0 10 0.991149 -0.741754 -3.0394
 1.33 2.9 6.38 200 120 1 1.1 4 0.55 3.5 34.4 29.02 4.38 1 3.09 6.2 11.6 15 1.7e-008 100 1 21.0215 12.25 0 10 1.00036 0.568541 -3.9793
 1.33 2.9 6.38 200 120 1 1.1 4 0.55 3.5 34.4 29.02 4.38 1 3.09 6.2 11.6 15 1.7e-008 100 1 21.0215 12.25 0 10 1.00958 0.0702043 -2.43168
 1.33 2.9 6.38 200 120 1 1.1 4 0.55 3.5 34.4 29.02 4.38 1 3.09 6.2 11.6 15 1.7e-008 100 1 21.0215 12.25 0 10 1.01879 -0.801037 -4.4628
 1.33 2.9 6.38 200 120 1 1.1 4 0.55 3.5 34.4 29.02 4.38 1 3.09 6.2 11.6 15 1.7e-008 100 1 21.0215 12.25 0 10 1.02391 -0.257167 -2.48664