File: LHC_elements/from_Benoit_BPMs/pourNicoStripline_scaled.txt
 sc Dstrippipe Lconnect Lpipe Lstrip M Rbeam Rbpm Rconn Riso1 Rpipe Rstrip Strip WStrip Xcurved Xstraight alfa angle beam_charge beam_sigma modes tap transStrip xbeam ybeam  Freq[GHz] Imp_Real[Ohm] Imp_Imag[Ohm]
 1 2.9 6.38 200 120 1 1.1 4 0.55 3.5 34.4 29.02 4.38 1 3.09 6.2 11.6 15 1.7e-008 50 1 21.0215 12.25 0 10 0 0 -7.95143
 1 2.9 6.38 200 120 1 1.1 4 0.55 3.5 34.4 29.02 4.38 1 3.09 6.2 11.6 15 1.7e-008 50 1 21.0215 12.25 0 10 0.0511957 -0.768953 -7.76642
 1 2.9 6.38 200 120 1 1.1 4 0.55 3.5 34.4 29.02 4.38 1 3.09 6.2 11.6 15 1.7e-008 50 1 21.0215 12.25 0 10 0.102391 -1.48985 -7.56503
 1 2.9 6.38 200 120 1 1.1 4 0.55 3.5 34.4 29.02 4.38 1 3.09 6.2 11.6 15 1.7e-008 50 1 21.0215 12.25 0 10 0.153587 -2.17615 -7.26649
 1 2.9 6.38 200 120 1 1.1 4 0.55 3.5 34.4 29.02 4.38 1 3.09 6.2 11.6 15 1.7e-008 50 1 21.0215 12.25 0 10 0.204783 -2.79302 -6.84732
 1 2.9 6.38 200 120 1 1.1 4 0.55 3.5 34.4 29.02 4.38 1 3.09 6.2 11.6 15 1.7e-008 50 1 21.0215 12.25 0 10 0.255979 -3.31442 -6.34937
 1 2.9 6.38 200 120 1 1.1 4 0.55 3.5 34.4 29.02 4.38 1 3.09 6.2 11.6 15 1.7e-008 50 1 21.0215 12.25 0 10 0.307174 -3.74348 -5.7805
 1 2.9 6.38 200 120 1 1.1 4 0.55 3.5 34.4 29.02 4.38 1 3.09 6.2 11.6 15 1.7e-008 50 1 21.0215 12.25 0 10 0.35837 -4.05429 -5.16262
 1 2.9 6.38 200 120 1 1.1 4 0.55 3.5 34.4 29.02 4.38 1 3.09 6.2 11.6 15 1.7e-008 50 1 21.0215 12.25 0 10 0.409566 -4.25522 -4.52611
 1 2.9 6.38 200 120 1 1.1 4 0.55 3.5 34.4 29.02 4.38 1 3.09 6.2 11.6 15 1.7e-008 50 1 21.0215 12.25 0 10 0.460761 -4.34131 -3.88054
 1 2.9 6.38 200 120 1 1.1 4 0.55 3.5 34.4 29.02 4.38 1 3.09 6.2 11.6 15 1.7e-008 50 1 21.0215 12.25 0 10 0.511957 -4.3148 -3.25895
 1 2.9 6.38 200 120 1 1.1 4 0.55 3.5 34.4 29.02 4.38 1 3.09 6.2 11.6 15 1.7e-008 50 1 21.0215 12.25 0 10 0.563153 -4.19189 -2.67178
 1 2.9 6.38 200 120 1 1.1 4 0.55 3.5 34.4 29.02 4.38 1 3.09 6.2 11.6 15 1.7e-008 50 1 21.0215 12.25 0 10 0.614349 -3.97278 -2.13823
 1 2.9 6.38 200 120 1 1.1 4 0.55 3.5 34.4 29.02 4.38 1 3.09 6.2 11.6 15 1.7e-008 50 1 21.0215 12.25 0 10 0.665544 -3.68155 -1.67582
 1 2.9 6.38 200 120 1 1.1 4 0.55 3.5 34.4 29.02 4.38 1 3.09 6.2 11.6 15 1.7e-008 50 1 21.0215 12.25 0 10 0.71674 -3.3272 -1.28679
 1 2.9 6.38 200 120 1 1.1 4 0.55 3.5 34.4 29.02 4.38 1 3.09 6.2 11.6 15 1.7e-008 50 1 21.0215 12.25 0 10 0.767936 -2.92778 -0.989457
 1 2.9 6.38 200 120 1 1.1 4 0.55 3.5 34.4 29.02 4.38 1 3.09 6.2 11.6 15 1.7e-008 50 1 21.0215 12.25 0 10 0.819132 -2.50611 -0.77827
 1 2.9 6.38 200 120 1 1.1 4 0.55 3.5 34.4 29.02 4.38 1 3.09 6.2 11.6 15 1.7e-008 50 1 21.0215 12.25 0 10 0.870327 -2.07073 -0.659473
 1 2.9 6.38 200 120 1 1.1 4 0.55 3.5 34.4 29.02 4.38 1 3.09 6.2 11.6 15 1.7e-008 50 1 21.0215 12.25 0 10 0.921523 -1.65059 -0.630497
 1 2.9 6.38 200 120 1 1.1 4 0.55 3.5 34.4 29.02 4.38 1 3.09 6.2 11.6 15 1.7e-008 50 1 21.0215 12.25 0 10 0.972719 -1.25248 -0.678562
 1 2.9 6.38 200 120 1 1.1 4 0.55 3.5 34.4 29.02 4.38 1 3.09 6.2 11.6 15 1.7e-008 50 1 21.0215 12.25 0 10 1.02391 -0.896086 -0.805217
 1 2.9 6.38 200 120 1 1.1 4 0.55 3.5 34.4 29.02 4.38 1 3.09 6.2 11.6 15 1.7e-008 50 1 21.0215 12.25 0 10 1.07511 -0.595239 -0.985646
 1 2.9 6.38 200 120 1 1.1 4 0.55 3.5 34.4 29.02 4.38 1 3.09 6.2 11.6 15 1.7e-008 50 1 21.0215 12.25 0 10 1.12631 -0.350589 -1.21575
 1 2.9 6.38 200 120 1 1.1 4 0.55 3.5 34.4 29.02 4.38 1 3.09 6.2 11.6 15 1.7e-008 50 1 21.0215 12.25 0 10 1.1775 -0.180972 -1.4751
 1 2.9 6.38 200 120 1 1.1 4 0.55 3.5 34.4 29.02 4.38 1 3.09 6.2 11.6 15 1.7e-008 50 1 21.0215 12.25 0 10 1.2287 -0.0734514 -1.74414
 1 2.9 6.38 200 120 1 1.1 4 0.55 3.5 34.4 29.02 4.38 1 3.09 6.2 11.6 15 1.7e-008 50 1 21.0215 12.25 0 10 1.27989 -0.0374885 -2.01818
 1 2.9 6.38 200 120 1 1.1 4 0.55 3.5 34.4 29.02 4.38 1 3.09 6.2 11.6 15 1.7e-008 50 1 21.0215 12.25 0 10 1.33109 -0.0631508 -2.26601
 1 2.9 6.38 200 120 1 1.1 4 0.55 3.5 34.4 29.02 4.38 1 3.09 6.2 11.6 15 1.7e-008 50 1 21.0215 12.25 0 10 1.38228 -0.136452 -2.49324
 1 2.9 6.38 200 120 1 1.1 4 0.55 3.5 34.4 29.02 4.38 1 3.09 6.2 11.6 15 1.7e-008 50 1 21.0215 12.25 0 10 1.43348 -0.261688 -2.67682
 1 2.9 6.38 200 120 1 1.1 4 0.55 3.5 34.4 29.02 4.38 1 3.09 6.2 11.6 15 1.7e-008 50 1 21.0215 12.25 0 10 1.48468 -0.404797 -2.81445
 1 2.9 6.38 200 120 1 1.1 4 0.55 3.5 34.4 29.02 4.38 1 3.09 6.2 11.6 15 1.7e-008 50 1 21.0215 12.25 0 10 1.53587 -0.575744 -2.9116
 1 2.9 6.38 200 120 1 1.1 4 0.55 3.5 34.4 29.02 4.38 1 3.09 6.2 11.6 15 1.7e-008 50 1 21.0215 12.25 0 10 1.58707 -0.745345 -2.94715
 1 2.9 6.38 200 120 1 1.1 4 0.55 3.5 34.4 29.02 4.38 1 3.09 6.2 11.6 15 1.7e-008 50 1 21.0215 12.25 0 10 1.63826 -0.905561 -2.95348
 1 2.9 6.38 200 120 1 1.1 4 0.55 3.5 34.4 29.02 4.38 1 3.09 6.2 11.6 15 1.7e-008 50 1 21.0215 12.25 0 10 1.68946 -1.05976 -2.90546
 1 2.9 6.38 200 120 1 1.1 4 0.55 3.5 34.4 29.02 4.38 1 3.09 6.2 11.6 15 1.7e-008 50 1 21.0215 12.25 0 10 1.74065 -1.169 -2.8314
 1 2.9 6.38 200 120 1 1.1 4 0.55 3.5 34.4 29.02 4.38 1 3.09 6.2 11.6 15 1.7e-008 50 1 21.0215 12.25 0 10 1.79185 -1.26884 -2.73696
 1 2.9 6.38 200 120 1 1.1 4 0.55 3.5 34.4 29.02 4.38 1 3.09 6.2 11.6 15 1.7e-008 50 1 21.0215 12.25 0 10 1.84305 -1.31293 -2.60969
 1 2.9 6.38 200 120 1 1.1 4 0.55 3.5 34.4 29.02 4.38 1 3.09 6.2 11.6 15 1.7e-008 50 1 21.0215 12.25 0 10 1.89424 -1.32789 -2.50517
 1 2.9 6.38 200 120 1 1.1 4 0.55 3.5 34.4 29.02 4.38 1 3.09 6.2 11.6 15 1.7e-008 50 1 21.0215 12.25 0 10 1.94544 -1.31304 -2.37116
 1 2.9 6.38 200 120 1 1.1 4 0.55 3.5 34.4 29.02 4.38 1 3.09 6.2 11.6 15 1.7e-008 50 1 21.0215 12.25 0 10 1.99663 -1.23506 -2.27836
 1 2.9 6.38 200 120 1 1.1 4 0.55 3.5 34.4 29.02 4.38 1 3.09 6.2 11.6 15 1.7e-008 50 1 21.0215 12.25 0 10 2.04783 -1.17018 -2.19513
 1 2.9 6.38 200 120 1 1.1 4 0.55 3.5 34.4 29.02 4.38 1 3.09 6.2 11.6 15 1.7e-008 75 1 21.0215 12.25 0 10 0.0327653 -0.481246 -7.89451
 1 2.9 6.38 200 120 1 1.1 4 0.55 3.5 34.4 29.02 4.38 1 3.09 6.2 11.6 15 1.7e-008 75 1 21.0215 12.25 0 10 0.0668957 -1.00122 -7.79318
 1 2.9 6.38 200 120 1 1.1 4 0.55 3.5 34.4 29.02 4.38 1 3.09 6.2 11.6 15 1.7e-008 75 1 21.0215 12.25 0 10 0.101026 -1.47765 -7.64518
 1 2.9 6.38 200 120 1 1.1 4 0.55 3.5 34.4 29.02 4.38 1 3.09 6.2 11.6 15 1.7e-008 75 1 21.0215 12.25 0 10 0.135157 -1.93709 -7.4621
 1 2.9 6.38 200 120 1 1.1 4 0.55 3.5 34.4 29.02 4.38 1 3.09 6.2 11.6 15 1.7e-008 75 1 21.0215 12.25 0 10 0.169287 -2.38095 -7.22554
 1 2.9 6.38 200 120 1 1.1 4 0.55 3.5 34.4 29.02 4.38 1 3.09 6.2 11.6 15 1.7e-008 75 1 21.0215 12.25 0 10 0.203418 -2.78596 -6.93477
 1 2.9 6.38 200 120 1 1.1 4 0.55 3.5 34.4 29.02 4.38 1 3.09 6.2 11.6 15 1.7e-008 75 1 21.0215 12.25 0 10 0.237548 -3.14417 -6.60968
 1 2.9 6.38 200 120 1 1.1 4 0.55 3.5 34.4 29.02 4.38 1 3.09 6.2 11.6 15 1.7e-008 75 1 21.0215 12.25 0 10 0.271679 -3.46409 -6.25694
 1 2.9 6.38 200 120 1 1.1 4 0.55 3.5 34.4 29.02 4.38 1 3.09 6.2 11.6 15 1.7e-008 75 1 21.0215 12.25 0 10 0.305809 -3.7416 -5.8715
 1 2.9 6.38 200 120 1 1.1 4 0.55 3.5 34.4 29.02 4.38 1 3.09 6.2 11.6 15 1.7e-008 75 1 21.0215 12.25 0 10 0.33994 -3.96436 -5.462
 1 2.9 6.38 200 120 1 1.1 4 0.55 3.5 34.4 29.02 4.38 1 3.09 6.2 11.6 15 1.7e-008 75 1 21.0215 12.25 0 10 0.37407 -4.13416 -5.0438
 1 2.9 6.38 200 120 1 1.1 4 0.55 3.5 34.4 29.02 4.38 1 3.09 6.2 11.6 15 1.7e-008 75 1 21.0215 12.25 0 10 0.408201 -4.258 -4.61929
 1 2.9 6.38 200 120 1 1.1 4 0.55 3.5 34.4 29.02 4.38 1 3.09 6.2 11.6 15 1.7e-008 75 1 21.0215 12.25 0 10 0.442331 -4.33116 -4.18856
 1 2.9 6.38 200 120 1 1.1 4 0.55 3.5 34.4 29.02 4.38 1 3.09 6.2 11.6 15 1.7e-008 75 1 21.0215 12.25 0 10 0.476462 -4.34948 -3.76357
 1 2.9 6.38 200 120 1 1.1 4 0.55 3.5 34.4 29.02 4.38 1 3.09 6.2 11.6 15 1.7e-008 75 1 21.0215 12.25 0 10 0.510592 -4.32103 -3.35443
 1 2.9 6.38 200 120 1 1.1 4 0.55 3.5 34.4 29.02 4.38 1 3.09 6.2 11.6 15 1.7e-008 75 1 21.0215 12.25 0 10 0.544722 -4.25142 -2.96012
 1 2.9 6.38 200 120 1 1.1 4 0.55 3.5 34.4 29.02 4.38 1 3.09 6.2 11.6 15 1.7e-008 75 1 21.0215 12.25 0 10 0.578853 -4.13703 -2.58383
 1 2.9 6.38 200 120 1 1.1 4 0.55 3.5 34.4 29.02 4.38 1 3.09 6.2 11.6 15 1.7e-008 75 1 21.0215 12.25 0 10 0.612983 -3.98082 -2.237
 1 2.9 6.38 200 120 1 1.1 4 0.55 3.5 34.4 29.02 4.38 1 3.09 6.2 11.6 15 1.7e-008 75 1 21.0215 12.25 0 10 0.647114 -3.79381 -1.92329
 1 2.9 6.38 200 120 1 1.1 4 0.55 3.5 34.4 29.02 4.38 1 3.09 6.2 11.6 15 1.7e-008 75 1 21.0215 12.25 0 10 0.681244 -3.57917 -1.6394
 1 2.9 6.38 200 120 1 1.1 4 0.55 3.5 34.4 29.02 4.38 1 3.09 6.2 11.6 15 1.7e-008 75 1 21.0215 12.25 0 10 0.715375 -3.3354 -1.39057
 1 2.9 6.38 200 120 1 1.1 4 0.55 3.5 34.4 29.02 4.38 1 3.09 6.2 11.6 15 1.7e-008 75 1 21.0215 12.25 0 10 0.749505 -3.07114 -1.18485
 1 2.9 6.38 200 120 1 1.1 4 0.55 3.5 34.4 29.02 4.38 1 3.09 6.2 11.6 15 1.7e-008 75 1 21.0215 12.25 0 10 0.783636 -2.79704 -1.01919
 1 2.9 6.38 200 120 1 1.1 4 0.55 3.5 34.4 29.02 4.38 1 3.09 6.2 11.6 15 1.7e-008 75 1 21.0215 12.25 0 10 0.817766 -2.51312 -0.889645
 1 2.9 6.38 200 120 1 1.1 4 0.55 3.5 34.4 29.02 4.38 1 3.09 6.2 11.6 15 1.7e-008 75 1 21.0215 12.25 0 10 0.851897 -2.22094 -0.802474
 1 2.9 6.38 200 120 1 1.1 4 0.55 3.5 34.4 29.02 4.38 1 3.09 6.2 11.6 15 1.7e-008 75 1 21.0215 12.25 0 10 0.886027 -1.93276 -0.759817
 1 2.9 6.38 200 120 1 1.1 4 0.55 3.5 34.4 29.02 4.38 1 3.09 6.2 11.6 15 1.7e-008 75 1 21.0215 12.25 0 10 0.920158 -1.65541 -0.752766
 1 2.9 6.38 200 120 1 1.1 4 0.55 3.5 34.4 29.02 4.38 1 3.09 6.2 11.6 15 1.7e-008 75 1 21.0215 12.25 0 10 0.954288 -1.38576 -0.778809
 1 2.9 6.38 200 120 1 1.1 4 0.55 3.5 34.4 29.02 4.38 1 3.09 6.2 11.6 15 1.7e-008 75 1 21.0215 12.25 0 10 0.988419 -1.12919 -0.843571
 1 2.9 6.38 200 120 1 1.1 4 0.55 3.5 34.4 29.02 4.38 1 3.09 6.2 11.6 15 1.7e-008 75 1 21.0215 12.25 0 10 1.02255 -0.898167 -0.94146
 1 2.9 6.38 200 120 1 1.1 4 0.55 3.5 34.4 29.02 4.38 1 3.09 6.2 11.6 15 1.7e-008 75 1 21.0215 12.25 0 10 1.05668 -0.692355 -1.06035
 1 2.9 6.38 200 120 1 1.1 4 0.55 3.5 34.4 29.02 4.38 1 3.09 6.2 11.6 15 1.7e-008 75 1 21.0215 12.25 0 10 1.09081 -0.506636 -1.20147
 1 2.9 6.38 200 120 1 1.1 4 0.55 3.5 34.4 29.02 4.38 1 3.09 6.2 11.6 15 1.7e-008 75 1 21.0215 12.25 0 10 1.12494 -0.350274 -1.36765
 1 2.9 6.38 200 120 1 1.1 4 0.55 3.5 34.4 29.02 4.38 1 3.09 6.2 11.6 15 1.7e-008 75 1 21.0215 12.25 0 10 1.15907 -0.231273 -1.54541
 1 2.9 6.38 200 120 1 1.1 4 0.55 3.5 34.4 29.02 4.38 1 3.09 6.2 11.6 15 1.7e-008 75 1 21.0215 12.25 0 10 1.1932 -0.140019 -1.72449
 1 2.9 6.38 200 120 1 1.1 4 0.55 3.5 34.4 29.02 4.38 1 3.09 6.2 11.6 15 1.7e-008 75 1 21.0215 12.25 0 10 1.22733 -0.0725594 -1.91186
 1 2.9 6.38 200 120 1 1.1 4 0.55 3.5 34.4 29.02 4.38 1 3.09 6.2 11.6 15 1.7e-008 75 1 21.0215 12.25 0 10 1.26146 -0.0412945 -2.10486
 1 2.9 6.38 200 120 1 1.1 4 0.55 3.5 34.4 29.02 4.38 1 3.09 6.2 11.6 15 1.7e-008 75 1 21.0215 12.25 0 10 1.29559 -0.0445008 -2.28462
 1 2.9 6.38 200 120 1 1.1 4 0.55 3.5 34.4 29.02 4.38 1 3.09 6.2 11.6 15 1.7e-008 75 1 21.0215 12.25 0 10 1.32972 -0.0646159 -2.44991
 1 2.9 6.38 200 120 1 1.1 4 0.55 3.5 34.4 29.02 4.38 1 3.09 6.2 11.6 15 1.7e-008 75 1 21.0215 12.25 0 10 1.36385 -0.104634 -2.6132
 1 2.9 6.38 200 120 1 1.1 4 0.55 3.5 34.4 29.02 4.38 1 3.09 6.2 11.6 15 1.7e-008 100 1 21.0215 12.25 0 10 0.02355 -0.389045 -7.86021
 1 2.9 6.38 200 120 1 1.1 4 0.55 3.5 34.4 29.02 4.38 1 3.09 6.2 11.6 15 1.7e-008 100 1 21.0215 12.25 0 10 0.0491479 -0.735575 -7.86122
 1 2.9 6.38 200 120 1 1.1 4 0.55 3.5 34.4 29.02 4.38 1 3.09 6.2 11.6 15 1.7e-008 100 1 21.0215 12.25 0 10 0.0747458 -1.08999 -7.76314
 1 2.9 6.38 200 120 1 1.1 4 0.55 3.5 34.4 29.02 4.38 1 3.09 6.2 11.6 15 1.7e-008 100 1 21.0215 12.25 0 10 0.100344 -1.47116 -7.6459
 1 2.9 6.38 200 120 1 1.1 4 0.55 3.5 34.4 29.02 4.38 1 3.09 6.2 11.6 15 1.7e-008 100 1 21.0215 12.25 0 10 0.125941 -1.82652 -7.52275
 1 2.9 6.38 200 120 1 1.1 4 0.55 3.5 34.4 29.02 4.38 1 3.09 6.2 11.6 15 1.7e-008 100 1 21.0215 12.25 0 10 0.151539 -2.15089 -7.35657
 1 2.9 6.38 200 120 1 1.1 4 0.55 3.5 34.4 29.02 4.38 1 3.09 6.2 11.6 15 1.7e-008 100 1 21.0215 12.25 0 10 0.177137 -2.47291 -7.15383
 1 2.9 6.38 200 120 1 1.1 4 0.55 3.5 34.4 29.02 4.38 1 3.09 6.2 11.6 15 1.7e-008 100 1 21.0215 12.25 0 10 0.202735 -2.7803 -6.94161
 1 2.9 6.38 200 120 1 1.1 4 0.55 3.5 34.4 29.02 4.38 1 3.09 6.2 11.6 15 1.7e-008 100 1 21.0215 12.25 0 10 0.228333 -3.05158 -6.70846
 1 2.9 6.38 200 120 1 1.1 4 0.55 3.5 34.4 29.02 4.38 1 3.09 6.2 11.6 15 1.7e-008 100 1 21.0215 12.25 0 10 0.253931 -3.30105 -6.44289
 1 2.9 6.38 200 120 1 1.1 4 0.55 3.5 34.4 29.02 4.38 1 3.09 6.2 11.6 15 1.7e-008 100 1 21.0215 12.25 0 10 0.279529 -3.53585 -6.16495
 1 2.9 6.38 200 120 1 1.1 4 0.55 3.5 34.4 29.02 4.38 1 3.09 6.2 11.6 15 1.7e-008 100 1 21.0215 12.25 0 10 0.305126 -3.73697 -5.88109
 1 2.9 6.38 200 120 1 1.1 4 0.55 3.5 34.4 29.02 4.38 1 3.09 6.2 11.6 15 1.7e-008 100 1 21.0215 12.25 0 10 0.330724 -3.90416 -5.57703
 1 2.9 6.38 200 120 1 1.1 4 0.55 3.5 34.4 29.02 4.38 1 3.09 6.2 11.6 15 1.7e-008 100 1 21.0215 12.25 0 10 0.356322 -4.05225 -5.26033
 1 2.9 6.38 200 120 1 1.1 4 0.55 3.5 34.4 29.02 4.38 1 3.09 6.2 11.6 15 1.7e-008 100 1 21.0215 12.25 0 10 0.38192 -4.17266 -4.94703
 1 2.9 6.38 200 120 1 1.1 4 0.55 3.5 34.4 29.02 4.38 1 3.09 6.2 11.6 15 1.7e-008 100 1 21.0215 12.25 0 10 0.407518 -4.25492 -4.62901
 1 2.9 6.38 200 120 1 1.1 4 0.55 3.5 34.4 29.02 4.38 1 3.09 6.2 11.6 15 1.7e-008 100 1 21.0215 12.25 0 10 0.433116 -4.31206 -4.30191
 1 2.9 6.38 200 120 1 1.1 4 0.55 3.5 34.4 29.02 4.38 1 3.09 6.2 11.6 15 1.7e-008 100 1 21.0215 12.25 0 10 0.458714 -4.34804 -3.98242
 1 2.9 6.38 200 120 1 1.1 4 0.55 3.5 34.4 29.02 4.38 1 3.09 6.2 11.6 15 1.7e-008 100 1 21.0215 12.25 0 10 0.484312 -4.34921 -3.67292
 1 2.9 6.38 200 120 1 1.1 4 0.55 3.5 34.4 29.02 4.38 1 3.09 6.2 11.6 15 1.7e-008 100 1 21.0215 12.25 0 10 0.509909 -4.32032 -3.36215
 1 2.9 6.38 200 120 1 1.1 4 0.55 3.5 34.4 29.02 4.38 1 3.09 6.2 11.6 15 1.7e-008 100 1 21.0215 12.25 0 10 0.535507 -4.27478 -3.05966
 1 2.9 6.38 200 120 1 1.1 4 0.55 3.5 34.4 29.02 4.38 1 3.09 6.2 11.6 15 1.7e-008 100 1 21.0215 12.25 0 10 0.561105 -4.20367 -2.77773
 1 2.9 6.38 200 120 1 1.1 4 0.55 3.5 34.4 29.02 4.38 1 3.09 6.2 11.6 15 1.7e-008 100 1 21.0215 12.25 0 10 0.586703 -4.10127 -2.50574
 1 2.9 6.38 200 120 1 1.1 4 0.55 3.5 34.4 29.02 4.38 1 3.09 6.2 11.6 15 1.7e-008 100 1 21.0215 12.25 0 10 0.612301 -3.98352 -2.24172
 1 2.9 6.38 200 120 1 1.1 4 0.55 3.5 34.4 29.02 4.38 1 3.09 6.2 11.6 15 1.7e-008 100 1 21.0215 12.25 0 10 0.637899 -3.85219 -2.0025
 1 2.9 6.38 200 120 1 1.1 4 0.55 3.5 34.4 29.02 4.38 1 3.09 6.2 11.6 15 1.7e-008 100 1 21.0215 12.25 0 10 0.663497 -3.69417 -1.7855
 1 2.9 6.38 200 120 1 1.1 4 0.55 3.5 34.4 29.02 4.38 1 3.09 6.2 11.6 15 1.7e-008 100 1 21.0215 12.25 0 10 0.689094 -3.51948 -1.57808
 1 2.9 6.38 200 120 1 1.1 4 0.55 3.5 34.4 29.02 4.38 1 3.09 6.2 11.6 15 1.7e-008 100 1 21.0215 12.25 0 10 0.714692 -3.34204 -1.39305
 1 2.9 6.38 200 120 1 1.1 4 0.55 3.5 34.4 29.02 4.38 1 3.09 6.2 11.6 15 1.7e-008 100 1 21.0215 12.25 0 10 0.74029 -3.14901 -1.24
 1 2.9 6.38 200 120 1 1.1 4 0.55 3.5 34.4 29.02 4.38 1 3.09 6.2 11.6 15 1.7e-008 100 1 21.0215 12.25 0 10 0.765888 -2.93788 -1.10205
 1 2.9 6.38 200 120 1 1.1 4 0.55 3.5 34.4 29.02 4.38 1 3.09 6.2 11.6 15 1.7e-008 100 1 21.0215 12.25 0 10 0.791486 -2.72994 -0.97955
 1 2.9 6.38 200 120 1 1.1 4 0.55 3.5 34.4 29.02 4.38 1 3.09 6.2 11.6 15 1.7e-008 100 1 21.0215 12.25 0 10 0.817084 -2.52238 -0.892132
 1 2.9 6.38 200 120 1 1.1 4 0.55 3.5 34.4 29.02 4.38 1 3.09 6.2 11.6 15 1.7e-008 100 1 21.0215 12.25 0 10 0.842682 -2.29899 -0.82924
 1 2.9 6.38 200 120 1 1.1 4 0.55 3.5 34.4 29.02 4.38 1 3.09 6.2 11.6 15 1.7e-008 100 1 21.0215 12.25 0 10 0.868279 -2.07792 -0.774566
 1 2.9 6.38 200 120 1 1.1 4 0.55 3.5 34.4 29.02 4.38 1 3.09 6.2 11.6 15 1.7e-008 100 1 21.0215 12.25 0 10 0.893877 -1.87353 -0.748452
 1 2.9 6.38 200 120 1 1.1 4 0.55 3.5 34.4 29.02 4.38 1 3.09 6.2 11.6 15 1.7e-008 100 1 21.0215 12.25 0 10 0.919475 -1.66308 -0.757054
 1 2.9 6.38 200 120 1 1.1 4 0.55 3.5 34.4 29.02 4.38 1 3.09 6.2 11.6 15 1.7e-008 100 1 21.0215 12.25 0 10 0.945073 -1.44842 -0.771739
 1 2.9 6.38 200 120 1 1.1 4 0.55 3.5 34.4 29.02 4.38 1 3.09 6.2 11.6 15 1.7e-008 100 1 21.0215 12.25 0 10 0.970671 -1.26045 -0.798961
 1 2.9 6.38 200 120 1 1.1 4 0.55 3.5 34.4 29.02 4.38 1 3.09 6.2 11.6 15 1.7e-008 100 1 21.0215 12.25 0 10 0.996269 -1.08494 -0.865615
 1 2.9 6.38 200 120 1 1.1 4 0.55 3.5 34.4 29.02 4.38 1 3.09 6.2 11.6 15 1.7e-008 100 1 21.0215 12.25 0 10 1.02187 -0.898456 -0.945512
 1.33 2.9 6.38 200 120 1 1.1 4 0.55 3.5 34.4 29.02 4.38 1 3.09 6.2 11.6 15 1.7e-008 50 1 21.0215 12.25 0 10 0.0450522 -5.28203e-05 -1.85151
 1.33 2.9 6.38 200 120 1 1.1 4 0.55 3.5 34.4 29.02 4.38 1 3.09 6.2 11.6 15 1.7e-008 50 1 21.0215 12.25 0 10 0.096248 0.0023749 -1.82579
 1.33 2.9 6.38 200 120 1 1.1 4 0.55 3.5 34.4 29.02 4.38 1 3.09 6.2 11.6 15 1.7e-008 50 1 21.0215 12.25 0 10 0.147444 0.00483554 -1.86608
 1.33 2.9 6.38 200 120 1 1.1 4 0.55 3.5 34.4 29.02 4.38 1 3.09 6.2 11.6 15 1.7e-008 50 1 21.0215 12.25 0 10 0.198639 -0.0115148 -1.82971
 1.33 2.9 6.38 200 120 1 1.1 4 0.55 3.5 34.4 29.02 4.38 1 3.09 6.2 11.6 15 1.7e-008 50 1 21.0215 12.25 0 10 0.249835 0.029946 -1.87973
 1.33 2.9 6.38 200 120 1 1.1 4 0.55 3.5 34.4 29.02 4.38 1 3.09 6.2 11.6 15 1.7e-008 50 1 21.0215 12.25 0 10 0.301031 -0.0374112 -1.86651
 1.33 2.9 6.38 200 120 1 1.1 4 0.55 3.5 34.4 29.02 4.38 1 3.09 6.2 11.6 15 1.7e-008 50 1 21.0215 12.25 0 10 0.352227 0.0502691 -1.86833
 1.33 2.9 6.38 200 120 1 1.1 4 0.55 3.5 34.4 29.02 4.38 1 3.09 6.2 11.6 15 1.7e-008 50 1 21.0215 12.25 0 10 0.403422 -0.035396 -1.94663
 1.33 2.9 6.38 200 120 1 1.1 4 0.55 3.5 34.4 29.02 4.38 1 3.09 6.2 11.6 15 1.7e-008 50 1 21.0215 12.25 0 10 0.454618 0.0202157 -1.85109
 1.33 2.9 6.38 200 120 1 1.1 4 0.55 3.5 34.4 29.02 4.38 1 3.09 6.2 11.6 15 1.7e-008 50 1 21.0215 12.25 0 10 0.505814 0.0304313 -2.02716
 1.33 2.9 6.38 200 120 1 1.1 4 0.55 3.5 34.4 29.02 4.38 1 3.09 6.2 11.6 15 1.7e-008 50 1 21.0215 12.25 0 10 0.557009 -0.0691717 -1.90138
 1.33 2.9 6.38 200 120 1 1.1 4 0.55 3.5 34.4 29.02 4.38 1 3.09 6.2 11.6 15 1.7e-008 50 1 21.0215 12.25 0 10 0.608205 0.12831 -2.0363
 1.33 2.9 6.38 200 120 1 1.1 4 0.55 3.5 34.4 29.02 4.38 1 3.09 6.2 11.6 15 1.7e-008 50 1 21.0215 12.25 0 10 0.659401 -0.139212 -2.09042
 1.33 2.9 6.38 200 120 1 1.1 4 0.55 3.5 34.4 29.02 4.38 1 3.09 6.2 11.6 15 1.7e-008 50 1 21.0215 12.25 0 10 0.710597 0.138285 -1.96308
 1.33 2.9 6.38 200 120 1 1.1 4 0.55 3.5 34.4 29.02 4.38 1 3.09 6.2 11.6 15 1.7e-008 50 1 21.0215 12.25 0 10 0.761792 -0.0464195 -2.3938
 1.33 2.9 6.38 200 120 1 1.1 4 0.55 3.5 34.4 29.02 4.38 1 3.09 6.2 11.6 15 1.7e-008 50 1 21.0215 12.25 0 10 0.812988 -0.076959 -1.96037
 1.33 2.9 6.38 200 120 1 1.1 4 0.55 3.5 34.4 29.02 4.38 1 3.09 6.2 11.6 15 1.7e-008 50 1 21.0215 12.25 0 10 0.864184 0.305017 -2.64443
 1.33 2.9 6.38 200 120 1 1.1 4 0.55 3.5 34.4 29.02 4.38 1 3.09 6.2 11.6 15 1.7e-008 50 1 21.0215 12.25 0 10 0.915379 -0.533471 -2.43003
 1.33 2.9 6.38 200 120 1 1.1 4 0.55 3.5 34.4 29.02 4.38 1 3.09 6.2 11.6 15 1.7e-008 50 1 21.0215 12.25 0 10 0.966575 0.820772 -2.60345
 1.33 2.9 6.38 200 120 1 1.1 4 0.55 3.5 34.4 29.02 4.38 1 3.09 6.2 11.6 15 1.7e-008 50 1 21.0215 12.25 0 10 1.01777 -0.98131 -4.68431
 1.33 2.9 6.38 200 120 1 1.1 4 0.55 3.5 34.4 29.02 4.38 1 3.09 6.2 11.6 15 1.7e-008 50 1 21.0215 12.25 0 10 1.06897 0.882754 -2.14155
 1.33 2.9 6.38 200 120 1 1.1 4 0.55 3.5 34.4 29.02 4.38 1 3.09 6.2 11.6 15 1.7e-008 50 1 21.0215 12.25 0 10 1.12016 -1.82802 10.3499
 1.33 2.9 6.38 200 120 1 1.1 4 0.55 3.5 34.4 29.02 4.38 1 3.09 6.2 11.6 15 1.7e-008 50 1 21.0215 12.25 0 10 1.17136 1.67653 -1.40585
 1.33 2.9 6.38 200 120 1 1.1 4 0.55 3.5 34.4 29.02 4.38 1 3.09 6.2 11.6 15 1.7e-008 50 1 21.0215 12.25 0 10 1.22255 -1.39175 -0.583691
 1.33 2.9 6.38 200 120 1 1.1 4 0.55 3.5 34.4 29.02 4.38 1 3.09 6.2 11.6 15 1.7e-008 50 1 21.0215 12.25 0 10 1.27375 1.03399 -0.754699
 1.33 2.9 6.38 200 120 1 1.1 4 0.55 3.5 34.4 29.02 4.38 1 3.09 6.2 11.6 15 1.7e-008 50 1 21.0215 12.25 0 10 1.32495 -0.563148 -2.13012
 1.33 2.9 6.38 200 120 1 1.1 4 0.55 3.5 34.4 29.02 4.38 1 3.09 6.2 11.6 15 1.7e-008 50 1 21.0215 12.25 0 10 1.37614 0.105542 -0.679861
 1.33 2.9 6.38 200 120 1 1.1 4 0.55 3.5 34.4 29.02 4.38 1 3.09 6.2 11.6 15 1.7e-008 50 1 21.0215 12.25 0 10 1.42734 0.349859 -2.38292
 1.33 2.9 6.38 200 120 1 1.1 4 0.55 3.5 34.4 29.02 4.38 1 3.09 6.2 11.6 15 1.7e-008 50 1 21.0215 12.25 0 10 1.47853 -0.630409 -1.32486
 1.33 2.9 6.38 200 120 1 1.1 4 0.55 3.5 34.4 29.02 4.38 1 3.09 6.2 11.6 15 1.7e-008 50 1 21.0215 12.25 0 10 1.52973 0.784637 -1.89929
 1.33 2.9 6.38 200 120 1 1.1 4 0.55 3.5 34.4 29.02 4.38 1 3.09 6.2 11.6 15 1.7e-008 50 1 21.0215 12.25 0 10 1.58092 -0.664262 -2.339
 1.33 2.9 6.38 200 120 1 1.1 4 0.55 3.5 34.4 29.02 4.38 1 3.09 6.2 11.6 15 1.7e-008 50 1 21.0215 12.25 0 10 1.63212 0.412809 -1.38167
 1.33 2.9 6.38 200 120 1 1.1 4 0.55 3.5 34.4 29.02 4.38 1 3.09 6.2 11.6 15 1.7e-008 50 1 21.0215 12.25 0 10 1.68332 0.0535388 -3.03018
 1.33 2.9 6.38 200 120 1 1.1 4 0.55 3.5 34.4 29.02 4.38 1 3.09 6.2 11.6 15 1.7e-008 50 1 21.0215 12.25 0 10 1.73451 -0.479238 -1.61465
 1.33 2.9 6.38 200 120 1 1.1 4 0.55 3.5 34.4 29.02 4.38 1 3.09 6.2 11.6 15 1.7e-008 50 1 21.0215 12.25 0 10 1.78571 0.906301 -2.89231
 1.33 2.9 6.38 200 120 1 1.1 4 0.55 3.5 34.4 29.02 4.38 1 3.09 6.2 11.6 15 1.7e-008 50 1 21.0215 12.25 0 10 1.8369 -1.00549 -2.97445
 1.33 2.9 6.38 200 120 1 1.1 4 0.55 3.5 34.4 29.02 4.38 1 3.09 6.2 11.6 15 1.7e-008 50 1 21.0215 12.25 0 10 1.8881 0.8405 -2.28224
 1.33 2.9 6.38 200 120 1 1.1 4 0.55 3.5 34.4 29.02 4.38 1 3.09 6.2 11.6 15 1.7e-008 50 1 21.0215 12.25 0 10 1.93929 0.0841496 -5.31364
 1.33 2.9 6.38 200 120 1 1.1 4 0.55 3.5 34.4 29.02 4.38 1 3.09 6.2 11.6 15 1.7e-008 50 1 21.0215 12.25 0 10 1.99049 -7.56884 -17.5319
 1.33 2.9 6.38 200 120 1 1.1 4 0.55 3.5 34.4 29.02 4.38 1 3.09 6.2 11.6 15 1.7e-008 50 1 21.0215 12.25 0 10 2.04169 1.64993 -8.77509
 1.33 2.9 6.38 200 120 1 1.1 4 0.55 3.5 34.4 29.02 4.38 1 3.09 6.2 11.6 15 1.7e-008 75 1 21.0215 12.25 0 10 0.0286696 0.0125528 -1.85262
 1.33 2.9 6.38 200 120 1 1.1 4 0.55 3.5 34.4 29.02 4.38 1 3.09 6.2 11.6 15 1.7e-008 75 1 21.0215 12.25 0 10 0.0628001 -0.0217496 -1.84057
 1.33 2.9 6.38 200 120 1 1.1 4 0.55 3.5 34.4 29.02 4.38 1 3.09 6.2 11.6 15 1.7e-008 75 1 21.0215 12.25 0 10 0.0969306 0.000394951 -1.81229
 1.33 2.9 6.38 200 120 1 1.1 4 0.55 3.5 34.4 29.02 4.38 1 3.09 6.2 11.6 15 1.7e-008 75 1 21.0215 12.25 0 10 0.131061 0.0256936 -1.8443
 1.33 2.9 6.38 200 120 1 1.1 4 0.55 3.5 34.4 29.02 4.38 1 3.09 6.2 11.6 15 1.7e-008 75 1 21.0215 12.25 0 10 0.165192 -0.00912768 -1.86626
 1.33 2.9 6.38 200 120 1 1.1 4 0.55 3.5 34.4 29.02 4.38 1 3.09 6.2 11.6 15 1.7e-008 75 1 21.0215 12.25 0 10 0.199322 -0.0186418 -1.83097
 1.33 2.9 6.38 200 120 1 1.1 4 0.55 3.5 34.4 29.02 4.38 1 3.09 6.2 11.6 15 1.7e-008 75 1 21.0215 12.25 0 10 0.233452 0.0253152 -1.83618
 1.33 2.9 6.38 200 120 1 1.1 4 0.55 3.5 34.4 29.02 4.38 1 3.09 6.2 11.6 15 1.7e-008 75 1 21.0215 12.25 0 10 0.267583 0.0160894 -1.88827
 1.33 2.9 6.38 200 120 1 1.1 4 0.55 3.5 34.4 29.02 4.38 1 3.09 6.2 11.6 15 1.7e-008 75 1 21.0215 12.25 0 10 0.301713 -0.0284011 -1.87559
 1.33 2.9 6.38 200 120 1 1.1 4 0.55 3.5 34.4 29.02 4.38 1 3.09 6.2 11.6 15 1.7e-008 75 1 21.0215 12.25 0 10 0.335844 0.00422181 -1.84232
 1.33 2.9 6.38 200 120 1 1.1 4 0.55 3.5 34.4 29.02 4.38 1 3.09 6.2 11.6 15 1.7e-008 75 1 21.0215 12.25 0 10 0.369974 0.0421512 -1.89665
 1.33 2.9 6.38 200 120 1 1.1 4 0.55 3.5 34.4 29.02 4.38 1 3.09 6.2 11.6 15 1.7e-008 75 1 21.0215 12.25 0 10 0.404105 -0.0128854 -1.93838
 1.33 2.9 6.38 200 120 1 1.1 4 0.55 3.5 34.4 29.02 4.38 1 3.09 6.2 11.6 15 1.7e-008 75 1 21.0215 12.25 0 10 0.438235 -0.0319987 -1.8852
 1.33 2.9 6.38 200 120 1 1.1 4 0.55 3.5 34.4 29.02 4.38 1 3.09 6.2 11.6 15 1.7e-008 75 1 21.0215 12.25 0 10 0.472366 0.0448174 -1.89397
 1.33 2.9 6.38 200 120 1 1.1 4 0.55 3.5 34.4 29.02 4.38 1 3.09 6.2 11.6 15 1.7e-008 75 1 21.0215 12.25 0 10 0.506496 0.034863 -1.99538
 1.33 2.9 6.38 200 120 1 1.1 4 0.55 3.5 34.4 29.02 4.38 1 3.09 6.2 11.6 15 1.7e-008 75 1 21.0215 12.25 0 10 0.540627 -0.0552283 -1.98393
 1.33 2.9 6.38 200 120 1 1.1 4 0.55 3.5 34.4 29.02 4.38 1 3.09 6.2 11.6 15 1.7e-008 75 1 21.0215 12.25 0 10 0.574757 -0.00106069 -1.91179
 1.33 2.9 6.38 200 120 1 1.1 4 0.55 3.5 34.4 29.02 4.38 1 3.09 6.2 11.6 15 1.7e-008 75 1 21.0215 12.25 0 10 0.608888 0.091734 -2.01637
 1.33 2.9 6.38 200 120 1 1.1 4 0.55 3.5 34.4 29.02 4.38 1 3.09 6.2 11.6 15 1.7e-008 75 1 21.0215 12.25 0 10 0.643018 -0.0184191 -2.12975
 1.33 2.9 6.38 200 120 1 1.1 4 0.55 3.5 34.4 29.02 4.38 1 3.09 6.2 11.6 15 1.7e-008 75 1 21.0215 12.25 0 10 0.677149 -0.0908731 -2.01691
 1.33 2.9 6.38 200 120 1 1.1 4 0.55 3.5 34.4 29.02 4.38 1 3.09 6.2 11.6 15 1.7e-008 75 1 21.0215 12.25 0 10 0.711279 0.0908188 -2.00144
 1.33 2.9 6.38 200 120 1 1.1 4 0.55 3.5 34.4 29.02 4.38 1 3.09 6.2 11.6 15 1.7e-008 75 1 21.0215 12.25 0 10 0.74541 0.111746 -2.26469
 1.33 2.9 6.38 200 120 1 1.1 4 0.55 3.5 34.4 29.02 4.38 1 3.09 6.2 11.6 15 1.7e-008 75 1 21.0215 12.25 0 10 0.77954 -0.150021 -2.29063
 1.33 2.9 6.38 200 120 1 1.1 4 0.55 3.5 34.4 29.02 4.38 1 3.09 6.2 11.6 15 1.7e-008 75 1 21.0215 12.25 0 10 0.813671 -0.0622788 -2.04617
 1.33 2.9 6.38 200 120 1 1.1 4 0.55 3.5 34.4 29.02 4.38 1 3.09 6.2 11.6 15 1.7e-008 75 1 21.0215 12.25 0 10 0.847801 0.28802 -2.29446
 1.33 2.9 6.38 200 120 1 1.1 4 0.55 3.5 34.4 29.02 4.38 1 3.09 6.2 11.6 15 1.7e-008 75 1 21.0215 12.25 0 10 0.881932 6.4019e-05 -2.78371
 1.33 2.9 6.38 200 120 1 1.1 4 0.55 3.5 34.4 29.02 4.38 1 3.09 6.2 11.6 15 1.7e-008 75 1 21.0215 12.25 0 10 0.916062 -0.428686 -2.46268
 1.33 2.9 6.38 200 120 1 1.1 4 0.55 3.5 34.4 29.02 4.38 1 3.09 6.2 11.6 15 1.7e-008 75 1 21.0215 12.25 0 10 0.950193 0.259876 -2.18767
 1.33 2.9 6.38 200 120 1 1.1 4 0.55 3.5 34.4 29.02 4.38 1 3.09 6.2 11.6 15 1.7e-008 75 1 21.0215 12.25 0 10 0.984323 0.744177 -3.52783
 1.33 2.9 6.38 200 120 1 1.1 4 0.55 3.5 34.4 29.02 4.38 1 3.09 6.2 11.6 15 1.7e-008 75 1 21.0215 12.25 0 10 1.01845 -0.933244 -4.5487
 1.33 2.9 6.38 200 120 1 1.1 4 0.55 3.5 34.4 29.02 4.38 1 3.09 6.2 11.6 15 1.7e-008 75 1 21.0215 12.25 0 10 1.05258 -1.48563 -2.71444
 1.33 2.9 6.38 200 120 1 1.1 4 0.55 3.5 34.4 29.02 4.38 1 3.09 6.2 11.6 15 1.7e-008 75 1 21.0215 12.25 0 10 1.08671 10.0497 -8.5673
 1.33 2.9 6.38 200 120 1 1.1 4 0.55 3.5 34.4 29.02 4.38 1 3.09 6.2 11.6 15 1.7e-008 75 1 21.0215 12.25 0 10 1.12084 -1.31168 10.5114
 1.33 2.9 6.38 200 120 1 1.1 4 0.55 3.5 34.4 29.02 4.38 1 3.09 6.2 11.6 15 1.7e-008 75 1 21.0215 12.25 0 10 1.15498 2.94417 0.730081
 1.33 2.9 6.38 200 120 1 1.1 4 0.55 3.5 34.4 29.02 4.38 1 3.09 6.2 11.6 15 1.7e-008 75 1 21.0215 12.25 0 10 1.18911 -0.225723 -2.44131
 1.33 2.9 6.38 200 120 1 1.1 4 0.55 3.5 34.4 29.02 4.38 1 3.09 6.2 11.6 15 1.7e-008 75 1 21.0215 12.25 0 10 1.22324 -1.58807 -0.367743
 1.33 2.9 6.38 200 120 1 1.1 4 0.55 3.5 34.4 29.02 4.38 1 3.09 6.2 11.6 15 1.7e-008 75 1 21.0215 12.25 0 10 1.25737 0.668719 0.202749
 1.33 2.9 6.38 200 120 1 1.1 4 0.55 3.5 34.4 29.02 4.38 1 3.09 6.2 11.6 15 1.7e-008 75 1 21.0215 12.25 0 10 1.2915 1.09247 -2.09669
 1.33 2.9 6.38 200 120 1 1.1 4 0.55 3.5 34.4 29.02 4.38 1 3.09 6.2 11.6 15 1.7e-008 75 1 21.0215 12.25 0 10 1.32563 -0.938398 -2.29805
 1.33 2.9 6.38 200 120 1 1.1 4 0.55 3.5 34.4 29.02 4.38 1 3.09 6.2 11.6 15 1.7e-008 75 1 21.0215 12.25 0 10 1.35976 -0.675582 -0.451694
 1.33 2.9 6.38 200 120 1 1.1 4 0.55 3.5 34.4 29.02 4.38 1 3.09 6.2 11.6 15 1.7e-008 100 1 21.0215 12.25 0 10 0.0204783 0.00966938 -1.85764
 1.33 2.9 6.38 200 120 1 1.1 4 0.55 3.5 34.4 29.02 4.38 1 3.09 6.2 11.6 15 1.7e-008 100 1 21.0215 12.25 0 10 0.0460761 -0.0127468 -1.88066
 1.33 2.9 6.38 200 120 1 1.1 4 0.55 3.5 34.4 29.02 4.38 1 3.09 6.2 11.6 15 1.7e-008 100 1 21.0215 12.25 0 10 0.071674 0.0085911 -1.88703
 1.33 2.9 6.38 200 120 1 1.1 4 0.55 3.5 34.4 29.02 4.38 1 3.09 6.2 11.6 15 1.7e-008 100 1 21.0215 12.25 0 10 0.0972719 0.00642965 -1.86963
 1.33 2.9 6.38 200 120 1 1.1 4 0.55 3.5 34.4 29.02 4.38 1 3.09 6.2 11.6 15 1.7e-008 100 1 21.0215 12.25 0 10 0.12287 -0.00976607 -1.87986
 1.33 2.9 6.38 200 120 1 1.1 4 0.55 3.5 34.4 29.02 4.38 1 3.09 6.2 11.6 15 1.7e-008 100 1 21.0215 12.25 0 10 0.148468 0.00291886 -1.89589
 1.33 2.9 6.38 200 120 1 1.1 4 0.55 3.5 34.4 29.02 4.38 1 3.09 6.2 11.6 15 1.7e-008 100 1 21.0215 12.25 0 10 0.174065 0.0127071 -1.88343
 1.33 2.9 6.38 200 120 1 1.1 4 0.55 3.5 34.4 29.02 4.38 1 3.09 6.2 11.6 15 1.7e-008 100 1 21.0215 12.25 0 10 0.199663 -0.00509629 -1.88212
 1.33 2.9 6.38 200 120 1 1.1 4 0.55 3.5 34.4 29.02 4.38 1 3.09 6.2 11.6 15 1.7e-008 100 1 21.0215 12.25 0 10 0.225261 -0.00517643 -1.90595
 1.33 2.9 6.38 200 120 1 1.1 4 0.55 3.5 34.4 29.02 4.38 1 3.09 6.2 11.6 15 1.7e-008 100 1 21.0215 12.25 0 10 0.250859 0.0147473 -1.90626
 1.33 2.9 6.38 200 120 1 1.1 4 0.55 3.5 34.4 29.02 4.38 1 3.09 6.2 11.6 15 1.7e-008 100 1 21.0215 12.25 0 10 0.276457 0.00517738 -1.89319
 1.33 2.9 6.38 200 120 1 1.1 4 0.55 3.5 34.4 29.02 4.38 1 3.09 6.2 11.6 15 1.7e-008 100 1 21.0215 12.25 0 10 0.302055 -0.0110684 -1.91436
 1.33 2.9 6.38 200 120 1 1.1 4 0.55 3.5 34.4 29.02 4.38 1 3.09 6.2 11.6 15 1.7e-008 100 1 21.0215 12.25 0 10 0.327653 0.00880348 -1.93445
 1.33 2.9 6.38 200 120 1 1.1 4 0.55 3.5 34.4 29.02 4.38 1 3.09 6.2 11.6 15 1.7e-008 100 1 21.0215 12.25 0 10 0.35325 0.017615 -1.91848
 1.33 2.9 6.38 200 120 1 1.1 4 0.55 3.5 34.4 29.02 4.38 1 3.09 6.2 11.6 15 1.7e-008 100 1 21.0215 12.25 0 10 0.378848 -0.00883501 -1.92417
 1.33 2.9 6.38 200 120 1 1.1 4 0.55 3.5 34.4 29.02 4.38 1 3.09 6.2 11.6 15 1.7e-008 100 1 21.0215 12.25 0 10 0.404446 -0.00440571 -1.96203
 1.33 2.9 6.38 200 120 1 1.1 4 0.55 3.5 34.4 29.02 4.38 1 3.09 6.2 11.6 15 1.7e-008 100 1 21.0215 12.25 0 10 0.430044 0.0249141 -1.96028
 1.33 2.9 6.38 200 120 1 1.1 4 0.55 3.5 34.4 29.02 4.38 1 3.09 6.2 11.6 15 1.7e-008 100 1 21.0215 12.25 0 10 0.455642 0.00513445 -1.94375
 1.33 2.9 6.38 200 120 1 1.1 4 0.55 3.5 34.4 29.02 4.38 1 3.09 6.2 11.6 15 1.7e-008 100 1 21.0215 12.25 0 10 0.48124 -0.0184255 -1.98434
 1.33 2.9 6.38 200 120 1 1.1 4 0.55 3.5 34.4 29.02 4.38 1 3.09 6.2 11.6 15 1.7e-008 100 1 21.0215 12.25 0 10 0.506838 0.0187523 -2.01529
 1.33 2.9 6.38 200 120 1 1.1 4 0.55 3.5 34.4 29.02 4.38 1 3.09 6.2 11.6 15 1.7e-008 100 1 21.0215 12.25 0 10 0.532436 0.028404 -1.98527
 1.33 2.9 6.38 200 120 1 1.1 4 0.55 3.5 34.4 29.02 4.38 1 3.09 6.2 11.6 15 1.7e-008 100 1 21.0215 12.25 0 10 0.558033 -0.0215097 -2.00276
 1.33 2.9 6.38 200 120 1 1.1 4 0.55 3.5 34.4 29.02 4.38 1 3.09 6.2 11.6 15 1.7e-008 100 1 21.0215 12.25 0 10 0.583631 -0.00548697 -2.07381
 1.33 2.9 6.38 200 120 1 1.1 4 0.55 3.5 34.4 29.02 4.38 1 3.09 6.2 11.6 15 1.7e-008 100 1 21.0215 12.25 0 10 0.609229 0.0494444 -2.06073
 1.33 2.9 6.38 200 120 1 1.1 4 0.55 3.5 34.4 29.02 4.38 1 3.09 6.2 11.6 15 1.7e-008 100 1 21.0215 12.25 0 10 0.634827 -6.55696e-05 -2.03027
 1.33 2.9 6.38 200 120 1 1.1 4 0.55 3.5 34.4 29.02 4.38 1 3.09 6.2 11.6 15 1.7e-008 100 1 21.0215 12.25 0 10 0.660425 -0.0422055 -2.12225
 1.33 2.9 6.38 200 120 1 1.1 4 0.55 3.5 34.4 29.02 4.38 1 3.09 6.2 11.6 15 1.7e-008 100 1 21.0215 12.25 0 10 0.686023 0.0469161 -2.17544
 1.33 2.9 6.38 200 120 1 1.1 4 0.55 3.5 34.4 29.02 4.38 1 3.09 6.2 11.6 15 1.7e-008 100 1 21.0215 12.25 0 10 0.711621 0.0535682 -2.09664
 1.33 2.9 6.38 200 120 1 1.1 4 0.55 3.5 34.4 29.02 4.38 1 3.09 6.2 11.6 15 1.7e-008 100 1 21.0215 12.25 0 10 0.737218 -0.0682486 -2.15174
 1.33 2.9 6.38 200 120 1 1.1 4 0.55 3.5 34.4 29.02 4.38 1 3.09 6.2 11.6 15 1.7e-008 100 1 21.0215 12.25 0 10 0.762816 -0.00622464 -2.31973
 1.33 2.9 6.38 200 120 1 1.1 4 0.55 3.5 34.4 29.02 4.38 1 3.09 6.2 11.6 15 1.7e-008 100 1 21.0215 12.25 0 10 0.788414 0.127649 -2.25223
 1.33 2.9 6.38 200 120 1 1.1 4 0.55 3.5 34.4 29.02 4.38 1 3.09 6.2 11.6 15 1.7e-008 100 1 21.0215 12.25 0 10 0.814012 -0.0361897 -2.17742
 1.33 2.9 6.38 200 120 1 1.1 4 0.55 3.5 34.4 29.02 4.38 1 3.09 6.2 11.6 15 1.7e-008 100 1 21.0215 12.25 0 10 0.83961 -0.13001 -2.46134
 1.33 2.9 6.38 200 120 1 1.1 4 0.55 3.5 34.4 29.02 4.38 1 3.09 6.2 11.6 15 1.7e-008 100 1 21.0215 12.25 0 10 0.865208 0.168419 -2.57167
 1.33 2.9 6.38 200 120 1 1.1 4 0.55 3.5 34.4 29.02 4.38 1 3.09 6.2 11.6 15 1.7e-008 100 1 21.0215 12.25 0 10 0.890806 0.131538 -2.28297
 1.33 2.9 6.38 200 120 1 1.1 4 0.55 3.5 34.4 29.02 4.38 1 3.09 6.2 11.6 15 1.7e-008 100 1 21.0215 12.25 0 10 0.916403 -0.30754 -2.54455
 1.33 2.9 6.38 200 120 1 1.1 4 0.55 3.5 34.4 29.02 4.38 1 3.09 6.2 11.6 15 1.7e-008 100 1 21.0215 12.25 0 10 0.942001 0.0290296 -3.17624
 1.33 2.9 6.38 200 120 1 1.1 4 0.55 3.5 34.4 29.02 4.38 1 3.09 6.2 11.6 15 1.7e-008 100 1 21.0215 12.25 0 10 0.967599 0.563042 -2.76974
 1.33 2.9 6.38 200 120 1 1.1 4 0.55 3.5 34.4 29.02 4.38 1 3.09 6.2 11.6 15 1.7e-008 100 1 21.0215 12.25 0 10 0.993197 -0.39038 -2.51579
 1.33 2.9 6.38 200 120 1 1.1 4 0.55 3.5 34.4 29.02 4.38 1 3.09 6.2 11.6 15 1.7e-008 100 1 21.0215 12.25 0 10 1.01879 -0.801037 -4.4628
 2.33 2.9 6.38 200 120 1 1.1 4 0.55 3.5 34.4 29.02 4.38 1 3.09 6.2 11.6 15 1.7e-008 50 1 21.0215 12.25 0 10 0.0389087 0.0329278 -1.06001
 2.33 2.9 6.38 200 120 1 1.1 4 0.55 3.5 34.4 29.02 4.38 1 3.09 6.2 11.6 15 1.7e-008 50 1 21.0215 12.25 0 10 0.0901045 -0.00697033 -1.1699
 2.33 2.9 6.38 200 120 1 1.1 4 0.55 3.5 34.4 29.02 4.38 1 3.09 6.2 11.6 15 1.7e-008 50 1 21.0215 12.25 0 10 0.1413 -0.019955 -1.05798
 2.33 2.9 6.38 200 120 1 1.1 4 0.55 3.5 34.4 29.02 4.38 1 3.09 6.2 11.6 15 1.7e-008 50 1 21.0215 12.25 0 10 0.192496 0.0482379 -1.16315
 2.33 2.9 6.38 200 120 1 1.1 4 0.55 3.5 34.4 29.02 4.38 1 3.09 6.2 11.6 15 1.7e-008 50 1 21.0215 12.25 0 10 0.243692 -0.0624405 -1.1127
 2.33 2.9 6.38 200 120 1 1.1 4 0.55 3.5 34.4 29.02 4.38 1 3.09 6.2 11.6 15 1.7e-008 50 1 21.0215 12.25 0 10 0.294887 0.0703697 -1.12191
 2.33 2.9 6.38 200 120 1 1.1 4 0.55 3.5 34.4 29.02 4.38 1 3.09 6.2 11.6 15 1.7e-008 50 1 21.0215 12.25 0 10 0.346083 -0.0534868 -1.20234
 2.33 2.9 6.38 200 120 1 1.1 4 0.55 3.5 34.4 29.02 4.38 1 3.09 6.2 11.6 15 1.7e-008 50 1 21.0215 12.25 0 10 0.397279 0.0303476 -1.08937
 2.33 2.9 6.38 200 120 1 1.1 4 0.55 3.5 34.4 29.02 4.38 1 3.09 6.2 11.6 15 1.7e-008 50 1 21.0215 12.25 0 10 0.448475 0.017545 -1.27597
 2.33 2.9 6.38 200 120 1 1.1 4 0.55 3.5 34.4 29.02 4.38 1 3.09 6.2 11.6 15 1.7e-008 50 1 21.0215 12.25 0 10 0.49967 -0.0588328 -1.1282
 2.33 2.9 6.38 200 120 1 1.1 4 0.55 3.5 34.4 29.02 4.38 1 3.09 6.2 11.6 15 1.7e-008 50 1 21.0215 12.25 0 10 0.550866 0.111298 -1.28431
 2.33 2.9 6.38 200 120 1 1.1 4 0.55 3.5 34.4 29.02 4.38 1 3.09 6.2 11.6 15 1.7e-008 50 1 21.0215 12.25 0 10 0.602062 -0.13111 -1.28639
 2.33 2.9 6.38 200 120 1 1.1 4 0.55 3.5 34.4 29.02 4.38 1 3.09 6.2 11.6 15 1.7e-008 50 1 21.0215 12.25 0 10 0.653257 0.139518 -1.2259
 2.33 2.9 6.38 200 120 1 1.1 4 0.55 3.5 34.4 29.02 4.38 1 3.09 6.2 11.6 15 1.7e-008 50 1 21.0215 12.25 0 10 0.704453 -0.0812211 -1.56175
 2.33 2.9 6.38 200 120 1 1.1 4 0.55 3.5 34.4 29.02 4.38 1 3.09 6.2 11.6 15 1.7e-008 50 1 21.0215 12.25 0 10 0.755649 -0.0117263 -1.20524
 2.33 2.9 6.38 200 120 1 1.1 4 0.55 3.5 34.4 29.02 4.38 1 3.09 6.2 11.6 15 1.7e-008 50 1 21.0215 12.25 0 10 0.806845 0.213273 -1.89501
 2.33 2.9 6.38 200 120 1 1.1 4 0.55 3.5 34.4 29.02 4.38 1 3.09 6.2 11.6 15 1.7e-008 50 1 21.0215 12.25 0 10 0.85804 -0.499741 -1.60623
 2.33 2.9 6.38 200 120 1 1.1 4 0.55 3.5 34.4 29.02 4.38 1 3.09 6.2 11.6 15 1.7e-008 50 1 21.0215 12.25 0 10 0.909236 1.13804 -2.32296
 2.33 2.9 6.38 200 120 1 1.1 4 0.55 3.5 34.4 29.02 4.38 1 3.09 6.2 11.6 15 1.7e-008 50 1 21.0215 12.25 0 10 0.960432 -9.68064 -22.5524
 2.33 2.9 6.38 200 120 1 1.1 4 0.55 3.5 34.4 29.02 4.38 1 3.09 6.2 11.6 15 1.7e-008 50 1 21.0215 12.25 0 10 1.01163 -0.399543 -1.37511
 2.33 2.9 6.38 200 120 1 1.1 4 0.55 3.5 34.4 29.02 4.38 1 3.09 6.2 11.6 15 1.7e-008 50 1 21.0215 12.25 0 10 1.06282 -0.424219 0.19675
 2.33 2.9 6.38 200 120 1 1.1 4 0.55 3.5 34.4 29.02 4.38 1 3.09 6.2 11.6 15 1.7e-008 50 1 21.0215 12.25 0 10 1.11402 0.850299 -1.24699
 2.33 2.9 6.38 200 120 1 1.1 4 0.55 3.5 34.4 29.02 4.38 1 3.09 6.2 11.6 15 1.7e-008 50 1 21.0215 12.25 0 10 1.16521 -1.20139 -2.55544
 2.33 2.9 6.38 200 120 1 1.1 4 0.55 3.5 34.4 29.02 4.38 1 3.09 6.2 11.6 15 1.7e-008 50 1 21.0215 12.25 0 10 1.21641 -1.2069 -4.73851
 2.33 2.9 6.38 200 120 1 1.1 4 0.55 3.5 34.4 29.02 4.38 1 3.09 6.2 11.6 15 1.7e-008 50 1 21.0215 12.25 0 10 1.26761 -0.679819 0.0292292
 2.33 2.9 6.38 200 120 1 1.1 4 0.55 3.5 34.4 29.02 4.38 1 3.09 6.2 11.6 15 1.7e-008 50 1 21.0215 12.25 0 10 1.3188 -1.82348 1.55033
 2.33 2.9 6.38 200 120 1 1.1 4 0.55 3.5 34.4 29.02 4.38 1 3.09 6.2 11.6 15 1.7e-008 50 1 21.0215 12.25 0 10 1.37 -0.348803 -0.726249
 2.33 2.9 6.38 200 120 1 1.1 4 0.55 3.5 34.4 29.02 4.38 1 3.09 6.2 11.6 15 1.7e-008 50 1 21.0215 12.25 0 10 1.42119 -0.468305 -0.477065
 2.33 2.9 6.38 200 120 1 1.1 4 0.55 3.5 34.4 29.02 4.38 1 3.09 6.2 11.6 15 1.7e-008 50 1 21.0215 12.25 0 10 1.47239 -0.0913666 -0.909971
 2.33 2.9 6.38 200 120 1 1.1 4 0.55 3.5 34.4 29.02 4.38 1 3.09 6.2 11.6 15 1.7e-008 50 1 21.0215 12.25 0 10 1.52358 -0.33006 -0.829051
 2.33 2.9 6.38 200 120 1 1.1 4 0.55 3.5 34.4 29.02 4.38 1 3.09 6.2 11.6 15 1.7e-008 50 1 21.0215 12.25 0 10 1.57478 0.189845 -1.07066
 2.33 2.9 6.38 200 120 1 1.1 4 0.55 3.5 34.4 29.02 4.38 1 3.09 6.2 11.6 15 1.7e-008 50 1 21.0215 12.25 0 10 1.62598 -0.22226 -1.51148
 2.33 2.9 6.38 200 120 1 1.1 4 0.55 3.5 34.4 29.02 4.38 1 3.09 6.2 11.6 15 1.7e-008 50 1 21.0215 12.25 0 10 1.67717 -0.0260987 -1.39236
 2.33 2.9 6.38 200 120 1 1.1 4 0.55 3.5 34.4 29.02 4.38 1 3.09 6.2 11.6 15 1.7e-008 50 1 21.0215 12.25 0 10 1.72837 -0.192391 -2.16386
 2.33 2.9 6.38 200 120 1 1.1 4 0.55 3.5 34.4 29.02 4.38 1 3.09 6.2 11.6 15 1.7e-008 50 1 21.0215 12.25 0 10 1.77956 -0.619299 -2.13615
 2.33 2.9 6.38 200 120 1 1.1 4 0.55 3.5 34.4 29.02 4.38 1 3.09 6.2 11.6 15 1.7e-008 50 1 21.0215 12.25 0 10 1.83076 -0.72046 -3.14548
 2.33 2.9 6.38 200 120 1 1.1 4 0.55 3.5 34.4 29.02 4.38 1 3.09 6.2 11.6 15 1.7e-008 50 1 21.0215 12.25 0 10 1.88195 -3.49966 -4.38001
 2.33 2.9 6.38 200 120 1 1.1 4 0.55 3.5 34.4 29.02 4.38 1 3.09 6.2 11.6 15 1.7e-008 50 1 21.0215 12.25 0 10 1.93315 -5.7458 2.9915
 2.33 2.9 6.38 200 120 1 1.1 4 0.55 3.5 34.4 29.02 4.38 1 3.09 6.2 11.6 15 1.7e-008 50 1 21.0215 12.25 0 10 1.98435 -1.09272 1.65345
 2.33 2.9 6.38 200 120 1 1.1 4 0.55 3.5 34.4 29.02 4.38 1 3.09 6.2 11.6 15 1.7e-008 50 1 21.0215 12.25 0 10 2.03554 -0.376132 1.11237
 2.33 2.9 6.38 200 120 1 1.1 4 0.55 3.5 34.4 29.02 4.38 1 3.09 6.2 11.6 15 1.7e-008 75 1 21.0215 12.25 0 10 0.0245739 0.0307694 -1.10074
 2.33 2.9 6.38 200 120 1 1.1 4 0.55 3.5 34.4 29.02 4.38 1 3.09 6.2 11.6 15 1.7e-008 75 1 21.0215 12.25 0 10 0.0587044 0.0182361 -1.15775
 2.33 2.9 6.38 200 120 1 1.1 4 0.55 3.5 34.4 29.02 4.38 1 3.09 6.2 11.6 15 1.7e-008 75 1 21.0215 12.25 0 10 0.0928349 -0.036223 -1.1376
 2.33 2.9 6.38 200 120 1 1.1 4 0.55 3.5 34.4 29.02 4.38 1 3.09 6.2 11.6 15 1.7e-008 75 1 21.0215 12.25 0 10 0.126965 -0.00456374 -1.0891
 2.33 2.9 6.38 200 120 1 1.1 4 0.55 3.5 34.4 29.02 4.38 1 3.09 6.2 11.6 15 1.7e-008 75 1 21.0215 12.25 0 10 0.161096 0.0415598 -1.13318
 2.33 2.9 6.38 200 120 1 1.1 4 0.55 3.5 34.4 29.02 4.38 1 3.09 6.2 11.6 15 1.7e-008 75 1 21.0215 12.25 0 10 0.195226 -0.00752164 -1.17665
 2.33 2.9 6.38 200 120 1 1.1 4 0.55 3.5 34.4 29.02 4.38 1 3.09 6.2 11.6 15 1.7e-008 75 1 21.0215 12.25 0 10 0.229357 -0.0382086 -1.12462
 2.33 2.9 6.38 200 120 1 1.1 4 0.55 3.5 34.4 29.02 4.38 1 3.09 6.2 11.6 15 1.7e-008 75 1 21.0215 12.25 0 10 0.263487 0.0263131 -1.10958
 2.33 2.9 6.38 200 120 1 1.1 4 0.55 3.5 34.4 29.02 4.38 1 3.09 6.2 11.6 15 1.7e-008 75 1 21.0215 12.25 0 10 0.297618 0.036748 -1.18695
 2.33 2.9 6.38 200 120 1 1.1 4 0.55 3.5 34.4 29.02 4.38 1 3.09 6.2 11.6 15 1.7e-008 75 1 21.0215 12.25 0 10 0.331748 -0.0375188 -1.19305
 2.33 2.9 6.38 200 120 1 1.1 4 0.55 3.5 34.4 29.02 4.38 1 3.09 6.2 11.6 15 1.7e-008 75 1 21.0215 12.25 0 10 0.365879 -0.0210354 -1.12541
 2.33 2.9 6.38 200 120 1 1.1 4 0.55 3.5 34.4 29.02 4.38 1 3.09 6.2 11.6 15 1.7e-008 75 1 21.0215 12.25 0 10 0.400009 0.0574741 -1.16794
 2.33 2.9 6.38 200 120 1 1.1 4 0.55 3.5 34.4 29.02 4.38 1 3.09 6.2 11.6 15 1.7e-008 75 1 21.0215 12.25 0 10 0.43414 0.00979391 -1.25754
 2.33 2.9 6.38 200 120 1 1.1 4 0.55 3.5 34.4 29.02 4.38 1 3.09 6.2 11.6 15 1.7e-008 75 1 21.0215 12.25 0 10 0.46827 -0.0630512 -1.20633
 2.33 2.9 6.38 200 120 1 1.1 4 0.55 3.5 34.4 29.02 4.38 1 3.09 6.2 11.6 15 1.7e-008 75 1 21.0215 12.25 0 10 0.502401 0.0216599 -1.15655
 2.33 2.9 6.38 200 120 1 1.1 4 0.55 3.5 34.4 29.02 4.38 1 3.09 6.2 11.6 15 1.7e-008 75 1 21.0215 12.25 0 10 0.536531 0.0778219 -1.2797
 2.33 2.9 6.38 200 120 1 1.1 4 0.55 3.5 34.4 29.02 4.38 1 3.09 6.2 11.6 15 1.7e-008 75 1 21.0215 12.25 0 10 0.570662 -0.0468555 -1.34279
 2.33 2.9 6.38 200 120 1 1.1 4 0.55 3.5 34.4 29.02 4.38 1 3.09 6.2 11.6 15 1.7e-008 75 1 21.0215 12.25 0 10 0.604792 -0.068193 -1.22161
 2.33 2.9 6.38 200 120 1 1.1 4 0.55 3.5 34.4 29.02 4.38 1 3.09 6.2 11.6 15 1.7e-008 75 1 21.0215 12.25 0 10 0.638923 0.100976 -1.25546
 2.33 2.9 6.38 200 120 1 1.1 4 0.55 3.5 34.4 29.02 4.38 1 3.09 6.2 11.6 15 1.7e-008 75 1 21.0215 12.25 0 10 0.673053 0.0641498 -1.48255
 2.33 2.9 6.38 200 120 1 1.1 4 0.55 3.5 34.4 29.02 4.38 1 3.09 6.2 11.6 15 1.7e-008 75 1 21.0215 12.25 0 10 0.707184 -0.149569 -1.44548
 2.33 2.9 6.38 200 120 1 1.1 4 0.55 3.5 34.4 29.02 4.38 1 3.09 6.2 11.6 15 1.7e-008 75 1 21.0215 12.25 0 10 0.741314 -0.011368 -1.26268
 2.33 2.9 6.38 200 120 1 1.1 4 0.55 3.5 34.4 29.02 4.38 1 3.09 6.2 11.6 15 1.7e-008 75 1 21.0215 12.25 0 10 0.775445 0.250377 -1.54756
 2.33 2.9 6.38 200 120 1 1.1 4 0.55 3.5 34.4 29.02 4.38 1 3.09 6.2 11.6 15 1.7e-008 75 1 21.0215 12.25 0 10 0.809575 -0.0688171 -1.93061
 2.33 2.9 6.38 200 120 1 1.1 4 0.55 3.5 34.4 29.02 4.38 1 3.09 6.2 11.6 15 1.7e-008 75 1 21.0215 12.25 0 10 0.843705 -0.381856 -1.59692
 2.33 2.9 6.38 200 120 1 1.1 4 0.55 3.5 34.4 29.02 4.38 1 3.09 6.2 11.6 15 1.7e-008 75 1 21.0215 12.25 0 10 0.877836 0.361413 -1.48353
 2.33 2.9 6.38 200 120 1 1.1 4 0.55 3.5 34.4 29.02 4.38 1 3.09 6.2 11.6 15 1.7e-008 75 1 21.0215 12.25 0 10 0.911966 0.834275 -3.2974
 2.33 2.9 6.38 200 120 1 1.1 4 0.55 3.5 34.4 29.02 4.38 1 3.09 6.2 11.6 15 1.7e-008 75 1 21.0215 12.25 0 10 0.946097 -2.52956 -6.76179
 2.33 2.9 6.38 200 120 1 1.1 4 0.55 3.5 34.4 29.02 4.38 1 3.09 6.2 11.6 15 1.7e-008 75 1 21.0215 12.25 0 10 0.980227 2.56094 -0.728997
 2.33 2.9 6.38 200 120 1 1.1 4 0.55 3.5 34.4 29.02 4.38 1 3.09 6.2 11.6 15 1.7e-008 75 1 21.0215 12.25 0 10 1.01436 -1.58545 -0.480684
 2.33 2.9 6.38 200 120 1 1.1 4 0.55 3.5 34.4 29.02 4.38 1 3.09 6.2 11.6 15 1.7e-008 75 1 21.0215 12.25 0 10 1.04849 -0.289269 0.576318
 2.33 2.9 6.38 200 120 1 1.1 4 0.55 3.5 34.4 29.02 4.38 1 3.09 6.2 11.6 15 1.7e-008 75 1 21.0215 12.25 0 10 1.08262 0.938737 -0.681561
 2.33 2.9 6.38 200 120 1 1.1 4 0.55 3.5 34.4 29.02 4.38 1 3.09 6.2 11.6 15 1.7e-008 75 1 21.0215 12.25 0 10 1.11675 0.120999 -2.00079
 2.33 2.9 6.38 200 120 1 1.1 4 0.55 3.5 34.4 29.02 4.38 1 3.09 6.2 11.6 15 1.7e-008 75 1 21.0215 12.25 0 10 1.15088 -1.14459 -1.50531
 2.33 2.9 6.38 200 120 1 1.1 4 0.55 3.5 34.4 29.02 4.38 1 3.09 6.2 11.6 15 1.7e-008 75 1 21.0215 12.25 0 10 1.18501 -0.967317 0.901174
 2.33 2.9 6.38 200 120 1 1.1 4 0.55 3.5 34.4 29.02 4.38 1 3.09 6.2 11.6 15 1.7e-008 75 1 21.0215 12.25 0 10 1.21914 -2.70106 -1.10192
 2.33 2.9 6.38 200 120 1 1.1 4 0.55 3.5 34.4 29.02 4.38 1 3.09 6.2 11.6 15 1.7e-008 75 1 21.0215 12.25 0 10 1.25327 -0.246366 -0.0128388
 2.33 2.9 6.38 200 120 1 1.1 4 0.55 3.5 34.4 29.02 4.38 1 3.09 6.2 11.6 15 1.7e-008 75 1 21.0215 12.25 0 10 1.2874 4.85467 -3.79378
 2.33 2.9 6.38 200 120 1 1.1 4 0.55 3.5 34.4 29.02 4.38 1 3.09 6.2 11.6 15 1.7e-008 75 1 21.0215 12.25 0 10 1.32153 -0.408873 1.45079
 2.33 2.9 6.38 200 120 1 1.1 4 0.55 3.5 34.4 29.02 4.38 1 3.09 6.2 11.6 15 1.7e-008 75 1 21.0215 12.25 0 10 1.35566 -0.237611 -0.866881
 2.33 2.9 6.38 200 120 1 1.1 4 0.55 3.5 34.4 29.02 4.38 1 3.09 6.2 11.6 15 1.7e-008 100 1 21.0215 12.25 0 10 0.0174065 -0.0125951 -1.16388
 2.33 2.9 6.38 200 120 1 1.1 4 0.55 3.5 34.4 29.02 4.38 1 3.09 6.2 11.6 15 1.7e-008 100 1 21.0215 12.25 0 10 0.0430044 0.0138463 -1.16292
 2.33 2.9 6.38 200 120 1 1.1 4 0.55 3.5 34.4 29.02 4.38 1 3.09 6.2 11.6 15 1.7e-008 100 1 21.0215 12.25 0 10 0.0686023 0.00778886 -1.13782
 2.33 2.9 6.38 200 120 1 1.1 4 0.55 3.5 34.4 29.02 4.38 1 3.09 6.2 11.6 15 1.7e-008 100 1 21.0215 12.25 0 10 0.0942001 -0.0164249 -1.15157
 2.33 2.9 6.38 200 120 1 1.1 4 0.55 3.5 34.4 29.02 4.38 1 3.09 6.2 11.6 15 1.7e-008 100 1 21.0215 12.25 0 10 0.119798 0.00190775 -1.17457
 2.33 2.9 6.38 200 120 1 1.1 4 0.55 3.5 34.4 29.02 4.38 1 3.09 6.2 11.6 15 1.7e-008 100 1 21.0215 12.25 0 10 0.145396 0.0183093 -1.15372
 2.33 2.9 6.38 200 120 1 1.1 4 0.55 3.5 34.4 29.02 4.38 1 3.09 6.2 11.6 15 1.7e-008 100 1 21.0215 12.25 0 10 0.170994 -0.00879486 -1.14656
 2.33 2.9 6.38 200 120 1 1.1 4 0.55 3.5 34.4 29.02 4.38 1 3.09 6.2 11.6 15 1.7e-008 100 1 21.0215 12.25 0 10 0.196592 -0.0115652 -1.17986
 2.33 2.9 6.38 200 120 1 1.1 4 0.55 3.5 34.4 29.02 4.38 1 3.09 6.2 11.6 15 1.7e-008 100 1 21.0215 12.25 0 10 0.222189 0.0192818 -1.17903
 2.33 2.9 6.38 200 120 1 1.1 4 0.55 3.5 34.4 29.02 4.38 1 3.09 6.2 11.6 15 1.7e-008 100 1 21.0215 12.25 0 10 0.247787 0.00652817 -1.15407
 2.33 2.9 6.38 200 120 1 1.1 4 0.55 3.5 34.4 29.02 4.38 1 3.09 6.2 11.6 15 1.7e-008 100 1 21.0215 12.25 0 10 0.273385 -0.0196541 -1.18016
 2.33 2.9 6.38 200 120 1 1.1 4 0.55 3.5 34.4 29.02 4.38 1 3.09 6.2 11.6 15 1.7e-008 100 1 21.0215 12.25 0 10 0.298983 0.00882555 -1.20713
 2.33 2.9 6.38 200 120 1 1.1 4 0.55 3.5 34.4 29.02 4.38 1 3.09 6.2 11.6 15 1.7e-008 100 1 21.0215 12.25 0 10 0.324581 0.0230252 -1.17907
 2.33 2.9 6.38 200 120 1 1.1 4 0.55 3.5 34.4 29.02 4.38 1 3.09 6.2 11.6 15 1.7e-008 100 1 21.0215 12.25 0 10 0.350179 -0.0159175 -1.18121
 2.33 2.9 6.38 200 120 1 1.1 4 0.55 3.5 34.4 29.02 4.38 1 3.09 6.2 11.6 15 1.7e-008 100 1 21.0215 12.25 0 10 0.375777 -0.0102608 -1.23079
 2.33 2.9 6.38 200 120 1 1.1 4 0.55 3.5 34.4 29.02 4.38 1 3.09 6.2 11.6 15 1.7e-008 100 1 21.0215 12.25 0 10 0.401374 0.0315545 -1.2225
 2.33 2.9 6.38 200 120 1 1.1 4 0.55 3.5 34.4 29.02 4.38 1 3.09 6.2 11.6 15 1.7e-008 100 1 21.0215 12.25 0 10 0.426972 0.00260969 -1.19352
 2.33 2.9 6.38 200 120 1 1.1 4 0.55 3.5 34.4 29.02 4.38 1 3.09 6.2 11.6 15 1.7e-008 100 1 21.0215 12.25 0 10 0.45257 -0.0295373 -1.2453
 2.33 2.9 6.38 200 120 1 1.1 4 0.55 3.5 34.4 29.02 4.38 1 3.09 6.2 11.6 15 1.7e-008 100 1 21.0215 12.25 0 10 0.478168 0.0229565 -1.27962
 2.33 2.9 6.38 200 120 1 1.1 4 0.55 3.5 34.4 29.02 4.38 1 3.09 6.2 11.6 15 1.7e-008 100 1 21.0215 12.25 0 10 0.503766 0.0324841 -1.23092
 2.33 2.9 6.38 200 120 1 1.1 4 0.55 3.5 34.4 29.02 4.38 1 3.09 6.2 11.6 15 1.7e-008 100 1 21.0215 12.25 0 10 0.529364 -0.0355491 -1.25269
 2.33 2.9 6.38 200 120 1 1.1 4 0.55 3.5 34.4 29.02 4.38 1 3.09 6.2 11.6 15 1.7e-008 100 1 21.0215 12.25 0 10 0.554962 -0.00799365 -1.33971
 2.33 2.9 6.38 200 120 1 1.1 4 0.55 3.5 34.4 29.02 4.38 1 3.09 6.2 11.6 15 1.7e-008 100 1 21.0215 12.25 0 10 0.580559 0.0612419 -1.30775
 2.33 2.9 6.38 200 120 1 1.1 4 0.55 3.5 34.4 29.02 4.38 1 3.09 6.2 11.6 15 1.7e-008 100 1 21.0215 12.25 0 10 0.606157 -0.0123635 -1.26697
 2.33 2.9 6.38 200 120 1 1.1 4 0.55 3.5 34.4 29.02 4.38 1 3.09 6.2 11.6 15 1.7e-008 100 1 21.0215 12.25 0 10 0.631755 -0.0572269 -1.38812
 2.33 2.9 6.38 200 120 1 1.1 4 0.55 3.5 34.4 29.02 4.38 1 3.09 6.2 11.6 15 1.7e-008 100 1 21.0215 12.25 0 10 0.657353 0.0654668 -1.43498
 2.33 2.9 6.38 200 120 1 1.1 4 0.55 3.5 34.4 29.02 4.38 1 3.09 6.2 11.6 15 1.7e-008 100 1 21.0215 12.25 0 10 0.682951 0.0535337 -1.32153
 2.33 2.9 6.38 200 120 1 1.1 4 0.55 3.5 34.4 29.02 4.38 1 3.09 6.2 11.6 15 1.7e-008 100 1 21.0215 12.25 0 10 0.708549 -0.103897 -1.41237
 2.33 2.9 6.38 200 120 1 1.1 4 0.55 3.5 34.4 29.02 4.38 1 3.09 6.2 11.6 15 1.7e-008 100 1 21.0215 12.25 0 10 0.734147 0.00872612 -1.6167
 2.33 2.9 6.38 200 120 1 1.1 4 0.55 3.5 34.4 29.02 4.38 1 3.09 6.2 11.6 15 1.7e-008 100 1 21.0215 12.25 0 10 0.759745 0.165208 -1.4856
 2.33 2.9 6.38 200 120 1 1.1 4 0.55 3.5 34.4 29.02 4.38 1 3.09 6.2 11.6 15 1.7e-008 100 1 21.0215 12.25 0 10 0.785342 -0.0955575 -1.41761
 2.33 2.9 6.38 200 120 1 1.1 4 0.55 3.5 34.4 29.02 4.38 1 3.09 6.2 11.6 15 1.7e-008 100 1 21.0215 12.25 0 10 0.81094 -0.168438 -1.85203
 2.33 2.9 6.38 200 120 1 1.1 4 0.55 3.5 34.4 29.02 4.38 1 3.09 6.2 11.6 15 1.7e-008 100 1 21.0215 12.25 0 10 0.836538 0.299884 -1.93366
 2.33 2.9 6.38 200 120 1 1.1 4 0.55 3.5 34.4 29.02 4.38 1 3.09 6.2 11.6 15 1.7e-008 100 1 21.0215 12.25 0 10 0.862136 0.117488 -1.48527
 2.33 2.9 6.38 200 120 1 1.1 4 0.55 3.5 34.4 29.02 4.38 1 3.09 6.2 11.6 15 1.7e-008 100 1 21.0215 12.25 0 10 0.887734 -0.642727 -2.1794
 2.33 2.9 6.38 200 120 1 1.1 4 0.55 3.5 34.4 29.02 4.38 1 3.09 6.2 11.6 15 1.7e-008 100 1 21.0215 12.25 0 10 0.913332 0.323614 -3.6388
 2.33 2.9 6.38 200 120 1 1.1 4 0.55 3.5 34.4 29.02 4.38 1 3.09 6.2 11.6 15 1.7e-008 100 1 21.0215 12.25 0 10 0.93893 1.95185 -2.66697
 2.33 2.9 6.38 200 120 1 1.1 4 0.55 3.5 34.4 29.02 4.38 1 3.09 6.2 11.6 15 1.7e-008 100 1 21.0215 12.25 0 10 0.964527 -26.0727 -13.2574
 2.33 2.9 6.38 200 120 1 1.1 4 0.55 3.5 34.4 29.02 4.38 1 3.09 6.2 11.6 15 1.7e-008 100 1 21.0215 12.25 0 10 0.990125 1.45456 4.57785
 2.33 2.9 6.38 200 120 1 1.1 4 0.55 3.5 34.4 29.02 4.38 1 3.09 6.2 11.6 15 1.7e-008 100 1 21.0215 12.25 0 10 1.01572 -1.7666 0.402004
 2.33 2.9 6.38 200 120 1 1.1 4 0.55 3.5 34.4 29.02 4.38 1 3.09 6.2 11.6 15 1.7e-008 100 1 21.0215 12.25 0 10 1.02391 1.41874 -0.876833